"text,""rt"",""key_press"",""block_duration"",""timing_post_trial"",""trial_id"",""trial_type"",""trial_index"",""time_elapsed"",""internal_node_id"",""exp_id"",""full_screen"",""focus_shifts"",""view_history"",""stimulus"",""possible_responses"",""stim_duration"",""exp_stage"",""correct"",""correct_response"",""feedback_duration"",""flanker_middle_direction"",""flanker_type"",""flanker_location"",""cue"",""trial_num"",""responses"",""credit_var""";;;
;;;
"<div class = centerbox><p class = center-block-text>Welcome to the experiment. This experiment will take about 15 minutes. Please make sure that you have enough time to focus, without being disturbed. It is okay to bookmark the page, and come back later when you will have more time. Press <strong>enter</strong> to begin.</p></div>,""10641"",""13"",""10641"",""0"",""instruction"",""poldrack-text"",""0"",""10643"",""0.0-0.0-0.0"",""attention-network-task"",""true"",""0"","""","""","""","""","""","""","""","""","""","""","""","""","""","""",""""";;;
;;;
",""52341"","""","""","""",""instruction"",""poldrack-instructions"",""1"",""62985"",""0.0-0.0-1.0"",""attention-network-task"",""true"",""0"",""[{""""page_index"""":0,""""viewing_time"""":7965},{""""page_index"""":1,""""viewing_time"""":18996},{""""page_index"""":2,""""viewing_time"""":21549},{""""page_index"""":3,""""viewing_time"""":3830}]"","""","""","""","""","""","""","""","""","""","""","""","""","""",""""";;;
;;;
",""-1"",""-1"",""1553"",""0"",""fixation"",""poldrack-single-stim"",""2"",""65544"",""0.0-1.0"",""attention-network-task"",""true"",""0"","""",""<div class = centerbox><div class = ANT_text>+</div></div>"",""none"",""1553"",""practice"","""","""","""","""","""","""","""","""","""",""""";;;
;;;
",""-1"",""-1"",""100"",""0"",""spatialcue"",""poldrack-single-stim"",""3"",""65648"",""0.0-2.0"",""attention-network-task"",""true"",""0"","""",""<div class = centerbox><div class = ANT_text>+</div></div><div class = centerbox><div class = ANT_up><div class = ANT_text>*</p></div></div>"",""none"",""100"",""practice"","""","""","""","""","""","""","""","""","""",""""";;;
;;;
",""-1"",""-1"",""400"",""0"",""fixation"",""poldrack-single-stim"",""4"",""66049"",""0.0-3.0"",""attention-network-task"",""true"",""0"","""",""<div class = centerbox><div class = ANT_text>+</div></div>"",""none"",""400"",""practice"","""","""","""","""","""","""","""","""","""",""""";;;
;;;
",""1230"",""37"",""1230"",""0"",""stim"",""poldrack-categorize"",""5"",""68283"",""0.0-4.0"",""attention-network-task"",""true"",""0"","""",""<div class = centerbox><div class = ANT_text>+</div></div><div class = ANT_up><img class = ANT_img src = images/no_arrow.png></img><img class = ANT_img src = images/no_arrow.png></img><img class = ANT_img src = images/left_arrow.png></img><img class = ANT_img src = images/no_arrow.png></img><img class = ANT_img src = images/no_arrow.png></img></div></div>"",""37,39"",""1230"",""practice"",""true"",""37"",""1000"",""left"",""neutral"",""up"",""spatial"",""1"","""",""""";;;
;;;
",""-1"",""-1"",""717"",""0"",""fixation"",""poldrack-single-stim"",""6"",""69008"",""0.0-5.0"",""attention-network-task"",""true"",""0"","""",""<div class = centerbox><div class = ANT_text>+</div></div>"",""none"",""717"",""practice"","""","""","""","""","""","""","""","""","""",""""";;;
;;;
",""-1"",""-1"",""1031"",""0"",""fixation"",""poldrack-single-stim"",""7"",""70042"",""0.0-6.0"",""attention-network-task"",""true"",""0"","""",""<div class = centerbox><div class = ANT_text>+</div></div>"",""none"",""1031"",""practice"","""","""","""","""","""","""","""","""","""",""""";;;
;;;
",""-1"",""-1"",""100"",""0"",""centercue"",""poldrack-single-stim"",""8"",""70145"",""0.0-7.0"",""attention-network-task"",""true"",""0"","""",""<div class = centerbox><div class = ANT_centercue_text>*</div></div>"",""none"",""100"",""practice"","""","""","""","""","""","""","""","""","""",""""";;;
;;;
",""-1"",""-1"",""400"",""0"",""fixation"",""poldrack-single-stim"",""9"",""70547"",""0.0-8.0"",""attention-network-task"",""true"",""0"","""",""<div class = centerbox><div class = ANT_text>+</div></div>"",""none"",""400"",""practice"","""","""","""","""","""","""","""","""","""",""""";;;
;;;
",""653"",""39"",""653"",""0"",""stim"",""poldrack-categorize"",""10"",""72204"",""0.0-9.0"",""attention-network-task"",""true"",""0"","""",""<div class = centerbox><div class = ANT_text>+</div></div><div class = ANT_up><img class = ANT_img src = images/right_arrow.png></img><img class = ANT_img src = images/right_arrow.png></img><img class = ANT_img src = images/right_arrow.png></img><img class = ANT_img src = images/right_arrow.png></img><img class = ANT_img src = images/right_arrow.png></img></div></div>"",""37,39"",""653"",""practice"",""true"",""39"",""1000"",""right"",""congruent"",""up"",""center"",""2"","""",""""";;;
;;;
",""-1"",""-1"",""1816"",""0"",""fixation"",""poldrack-single-stim"",""11"",""74028"",""0.0-10.0"",""attention-network-task"",""true"",""0"","""",""<div class = centerbox><div class = ANT_text>+</div></div>"",""none"",""1816"",""practice"","""","""","""","""","""","""","""","""","""",""""";;;
;;;
",""-1"",""-1"",""1194"",""0"",""fixation"",""poldrack-single-stim"",""12"",""75227"",""0.0-11.0"",""attention-network-task"",""true"",""0"","""",""<div class = centerbox><div class = ANT_text>+</div></div>"",""none"",""1194"",""practice"","""","""","""","""","""","""","""","""","""",""""";;;
;;;
",""-1"",""-1"",""100"",""0"",""nocue"",""poldrack-single-stim"",""13"",""75330"",""0.0-12.0"",""attention-network-task"",""true"",""0"","""",""<div class = centerbox><div class = ANT_text>+</div></div>"",""none"",""100"",""practice"","""","""","""","""","""","""","""","""","""",""""";;;
;;;
",""-1"",""-1"",""400"",""0"",""fixation"",""poldrack-single-stim"",""14"",""75734"",""0.0-13.0"",""attention-network-task"",""true"",""0"","""",""<div class = centerbox><div class = ANT_text>+</div></div>"",""none"",""400"",""practice"","""","""","""","""","""","""","""","""","""",""""";;;
;;;
",""754"",""37"",""754"",""0"",""stim"",""poldrack-categorize"",""15"",""77493"",""0.0-14.0"",""attention-network-task"",""true"",""0"","""",""<div class = centerbox><div class = ANT_text>+</div></div><div class = ANT_up><img class = ANT_img src = images/no_arrow.png></img><img class = ANT_img src = images/no_arrow.png></img><img class = ANT_img src = images/left_arrow.png></img><img class = ANT_img src = images/no_arrow.png></img><img class = ANT_img src = images/no_arrow.png></img></div></div>"",""37,39"",""754"",""practice"",""true"",""37"",""1000"",""left"",""neutral"",""up"",""nocue"",""3"","""",""""";;;
;;;
",""-1"",""-1"",""1552"",""0"",""fixation"",""poldrack-single-stim"",""16"",""79052"",""0.0-15.0"",""attention-network-task"",""true"",""0"","""",""<div class = centerbox><div class = ANT_text>+</div></div>"",""none"",""1552"",""practice"","""","""","""","""","""","""","""","""","""",""""";;;
;;;
",""-1"",""-1"",""693"",""0"",""fixation"",""poldrack-single-stim"",""17"",""79747"",""0.0-16.0"",""attention-network-task"",""true"",""0"","""",""<div class = centerbox><div class = ANT_text>+</div></div>"",""none"",""693"",""practice"","""","""","""","""","""","""","""","""","""",""""";;;
;;;
",""-1"",""-1"",""100"",""0"",""spatialcue"",""poldrack-single-stim"",""18"",""79850"",""0.0-17.0"",""attention-network-task"",""true"",""0"","""",""<div class = centerbox><div class = ANT_text>+</div></div><div class = centerbox><div class = ANT_up><div class = ANT_text>*</p></div></div>"",""none"",""100"",""practice"","""","""","""","""","""","""","""","""","""",""""";;;
;;;
",""-1"",""-1"",""400"",""0"",""fixation"",""poldrack-single-stim"",""19"",""80254"",""0.0-18.0"",""attention-network-task"",""true"",""0"","""",""<div class = centerbox><div class = ANT_text>+</div></div>"",""none"",""400"",""practice"","""","""","""","""","""","""","""","""","""",""""";;;
;;;
",""1362"",""37"",""1362"",""0"",""stim"",""poldrack-categorize"",""20"",""82622"",""0.0-19.0"",""attention-network-task"",""true"",""0"","""",""<div class = centerbox><div class = ANT_text>+</div></div><div class = ANT_up><img class = ANT_img src = images/right_arrow.png></img><img class = ANT_img src = images/right_arrow.png></img><img class = ANT_img src = images/left_arrow.png></img><img class = ANT_img src = images/right_arrow.png></img><img class = ANT_img src = images/right_arrow.png></img></div></div>"",""37,39"",""1362"",""practice"",""true"",""37"",""1000"",""left"",""incongruent"",""up"",""spatial"",""4"","""",""""";;;
;;;
",""-1"",""-1"",""1445"",""0"",""fixation"",""poldrack-single-stim"",""21"",""84075"",""0.0-20.0"",""attention-network-task"",""true"",""0"","""",""<div class = centerbox><div class = ANT_text>+</div></div>"",""none"",""1445"",""practice"","""","""","""","""","""","""","""","""","""",""""";;;
;;;
",""-1"",""-1"",""1225"",""0"",""fixation"",""poldrack-single-stim"",""22"",""85303"",""0.0-21.0"",""attention-network-task"",""true"",""0"","""",""<div class = centerbox><div class = ANT_text>+</div></div>"",""none"",""1225"",""practice"","""","""","""","""","""","""","""","""","""",""""";;;
;;;
",""-1"",""-1"",""100"",""0"",""centercue"",""poldrack-single-stim"",""23"",""85406"",""0.0-22.0"",""attention-network-task"",""true"",""0"","""",""<div class = centerbox><div class = ANT_centercue_text>*</div></div>"",""none"",""100"",""practice"","""","""","""","""","""","""","""","""","""",""""";;;
;;;
",""-1"",""-1"",""400"",""0"",""fixation"",""poldrack-single-stim"",""24"",""85810"",""0.0-23.0"",""attention-network-task"",""true"",""0"","""",""<div class = centerbox><div class = ANT_text>+</div></div>"",""none"",""400"",""practice"","""","""","""","""","""","""","""","""","""",""""";;;
;;;
",""693"",""39"",""693"",""0"",""stim"",""poldrack-categorize"",""25"",""87509"",""0.0-24.0"",""attention-network-task"",""true"",""0"","""",""<div class = centerbox><div class = ANT_text>+</div></div><div class = ANT_up><img class = ANT_img src = images/no_arrow.png></img><img class = ANT_img src = images/no_arrow.png></img><img class = ANT_img src = images/right_arrow.png></img><img class = ANT_img src = images/no_arrow.png></img><img class = ANT_img src = images/no_arrow.png></img></div></div>"",""37,39"",""693"",""practice"",""true"",""39"",""1000"",""right"",""neutral"",""up"",""center"",""5"","""",""""";;;
;;;
",""-1"",""-1"",""1582"",""0"",""fixation"",""poldrack-single-stim"",""26"",""89100"",""0.0-25.0"",""attention-network-task"",""true"",""0"","""",""<div class = centerbox><div class = ANT_text>+</div></div>"",""none"",""1582"",""practice"","""","""","""","""","""","""","""","""","""",""""";;;
;;;
",""-1"",""-1"",""1499"",""0"",""fixation"",""poldrack-single-stim"",""27"",""90602"",""0.0-26.0"",""attention-network-task"",""true"",""0"","""",""<div class = centerbox><div class = ANT_text>+</div></div>"",""none"",""1499"",""practice"","""","""","""","""","""","""","""","""","""",""""";;;
;;;
",""-1"",""-1"",""100"",""0"",""nocue"",""poldrack-single-stim"",""28"",""90704"",""0.0-27.0"",""attention-network-task"",""true"",""0"","""",""<div class = centerbox><div class = ANT_text>+</div></div>"",""none"",""100"",""practice"","""","""","""","""","""","""","""","""","""",""""";;;
;;;
",""-1"",""-1"",""400"",""0"",""fixation"",""poldrack-single-stim"",""29"",""91107"",""0.0-28.0"",""attention-network-task"",""true"",""0"","""",""<div class = centerbox><div class = ANT_text>+</div></div>"",""none"",""400"",""practice"","""","""","""","""","""","""","""","""","""",""""";;;
;;;
",""702"",""39"",""702"",""0"",""stim"",""poldrack-categorize"",""30"",""92814"",""0.0-29.0"",""attention-network-task"",""true"",""0"","""",""<div class = centerbox><div class = ANT_text>+</div></div><div class = ANT_up><img class = ANT_img src = images/right_arrow.png></img><img class = ANT_img src = images/right_arrow.png></img><img class = ANT_img src = images/right_arrow.png></img><img class = ANT_img src = images/right_arrow.png></img><img class = ANT_img src = images/right_arrow.png></img></div></div>"",""37,39"",""702"",""practice"",""true"",""39"",""1000"",""right"",""congruent"",""up"",""nocue"",""6"","""",""""";;;
;;;
",""-1"",""-1"",""1299"",""0"",""fixation"",""poldrack-single-stim"",""31"",""94122"",""0.0-30.0"",""attention-network-task"",""true"",""0"","""",""<div class = centerbox><div class = ANT_text>+</div></div>"",""none"",""1299"",""practice"","""","""","""","""","""","""","""","""","""",""""";;;
;;;
",""-1"",""-1"",""1078"",""0"",""fixation"",""poldrack-single-stim"",""32"",""95202"",""0.0-31.0"",""attention-network-task"",""true"",""0"","""",""<div class = centerbox><div class = ANT_text>+</div></div>"",""none"",""1078"",""practice"","""","""","""","""","""","""","""","""","""",""""";;;
;;;
",""-1"",""-1"",""100"",""0"",""spatialcue"",""poldrack-single-stim"",""33"",""95305"",""0.0-32.0"",""attention-network-task"",""true"",""0"","""",""<div class = centerbox><div class = ANT_text>+</div></div><div class = centerbox><div class = ANT_up><div class = ANT_text>*</p></div></div>"",""none"",""100"",""practice"","""","""","""","""","""","""","""","""","""",""""";;;
;;;
",""-1"",""-1"",""400"",""0"",""fixation"",""poldrack-single-stim"",""34"",""95707"",""0.0-33.0"",""attention-network-task"",""true"",""0"","""",""<div class = centerbox><div class = ANT_text>+</div></div>"",""none"",""400"",""practice"","""","""","""","""","""","""","""","""","""",""""";;;
;;;
",""550"",""37"",""550"",""0"",""stim"",""poldrack-categorize"",""35"",""97261"",""0.0-34.0"",""attention-network-task"",""true"",""0"","""",""<div class = centerbox><div class = ANT_text>+</div></div><div class = ANT_up><img class = ANT_img src = images/left_arrow.png></img><img class = ANT_img src = images/left_arrow.png></img><img class = ANT_img src = images/left_arrow.png></img><img class = ANT_img src = images/left_arrow.png></img><img class = ANT_img src = images/left_arrow.png></img></div></div>"",""37,39"",""550"",""practice"",""true"",""37"",""1000"",""left"",""congruent"",""up"",""spatial"",""7"","""",""""";;;
;;;
",""-1"",""-1"",""1872"",""0"",""fixation"",""poldrack-single-stim"",""36"",""99150"",""0.0-35.0"",""attention-network-task"",""true"",""0"","""",""<div class = centerbox><div class = ANT_text>+</div></div>"",""none"",""1872"",""practice"","""","""","""","""","""","""","""","""","""",""""";;;
;;;
",""-1"",""-1"",""991"",""0"",""fixation"",""poldrack-single-stim"",""37"",""100144"",""0.0-36.0"",""attention-network-task"",""true"",""0"","""",""<div class = centerbox><div class = ANT_text>+</div></div>"",""none"",""991"",""practice"","""","""","""","""","""","""","""","""","""",""""";;;
;;;
",""-1"",""-1"",""100"",""0"",""doublecue"",""poldrack-single-stim"",""38"",""100246"",""0.0-37.0"",""attention-network-task"",""true"",""0"","""",""<div class = centerbox><div class = ANT_text>+</div></div><div class = ANT_down><div class = ANT_text>*</div></div><div class = ANT_up><div class = ANT_text>*</div><div></div>"",""none"",""100"",""practice"","""","""","""","""","""","""","""","""","""",""""";;;
;;;
",""-1"",""-1"",""400"",""0"",""fixation"",""poldrack-single-stim"",""39"",""100649"",""0.0-38.0"",""attention-network-task"",""true"",""0"","""",""<div class = centerbox><div class = ANT_text>+</div></div>"",""none"",""400"",""practice"","""","""","""","""","""","""","""","""","""",""""";;;
;;;
",""742"",""39"",""742"",""0"",""stim"",""poldrack-categorize"",""40"",""102397"",""0.0-39.0"",""attention-network-task"",""true"",""0"","""",""<div class = centerbox><div class = ANT_text>+</div></div><div class = ANT_down><img class = ANT_img src = images/no_arrow.png></img><img class = ANT_img src = images/no_arrow.png></img><img class = ANT_img src = images/right_arrow.png></img><img class = ANT_img src = images/no_arrow.png></img><img class = ANT_img src = images/no_arrow.png></img></div></div>"",""37,39"",""742"",""practice"",""true"",""39"",""1000"",""right"",""neutral"",""down"",""double"",""8"","""",""""";;;
;;;
",""-1"",""-1"",""1767"",""0"",""fixation"",""poldrack-single-stim"",""41"",""104172"",""0.0-40.0"",""attention-network-task"",""true"",""0"","""",""<div class = centerbox><div class = ANT_text>+</div></div>"",""none"",""1767"",""practice"","""","""","""","""","""","""","""","""","""",""""";;;
;;;
",""-1"",""-1"",""1311"",""0"",""fixation"",""poldrack-single-stim"",""42"",""105486"",""0.0-41.0"",""attention-network-task"",""true"",""0"","""",""<div class = centerbox><div class = ANT_text>+</div></div>"",""none"",""1311"",""practice"","""","""","""","""","""","""","""","""","""",""""";;;
;;;
",""-1"",""-1"",""100"",""0"",""centercue"",""poldrack-single-stim"",""43"",""105589"",""0.0-42.0"",""attention-network-task"",""true"",""0"","""",""<div class = centerbox><div class = ANT_centercue_text>*</div></div>"",""none"",""100"",""practice"","""","""","""","""","""","""","""","""","""",""""";;;
;;;
",""-1"",""-1"",""400"",""0"",""fixation"",""poldrack-single-stim"",""44"",""105992"",""0.0-43.0"",""attention-network-task"",""true"",""0"","""",""<div class = centerbox><div class = ANT_text>+</div></div>"",""none"",""400"",""practice"","""","""","""","""","""","""","""","""","""",""""";;;
;;;
",""648"",""37"",""648"",""0"",""stim"",""poldrack-categorize"",""45"",""107644"",""0.0-44.0"",""attention-network-task"",""true"",""0"","""",""<div class = centerbox><div class = ANT_text>+</div></div><div class = ANT_up><img class = ANT_img src = images/right_arrow.png></img><img class = ANT_img src = images/right_arrow.png></img><img class = ANT_img src = images/left_arrow.png></img><img class = ANT_img src = images/right_arrow.png></img><img class = ANT_img src = images/right_arrow.png></img></div></div>"",""37,39"",""648"",""practice"",""true"",""37"",""1000"",""left"",""incongruent"",""up"",""center"",""9"","""",""""";;;
;;;
",""-1"",""-1"",""1541"",""0"",""fixation"",""poldrack-single-stim"",""46"",""109195"",""0.0-45.0"",""attention-network-task"",""true"",""0"","""",""<div class = centerbox><div class = ANT_text>+</div></div>"",""none"",""1541"",""practice"","""","""","""","""","""","""","""","""","""",""""";;;
;;;
",""-1"",""-1"",""486"",""0"",""fixation"",""poldrack-single-stim"",""47"",""109683"",""0.0-46.0"",""attention-network-task"",""true"",""0"","""",""<div class = centerbox><div class = ANT_text>+</div></div>"",""none"",""486"",""practice"","""","""","""","""","""","""","""","""","""",""""";;;
;;;
",""-1"",""-1"",""100"",""0"",""doublecue"",""poldrack-single-stim"",""48"",""109786"",""0.0-47.0"",""attention-network-task"",""true"",""0"","""",""<div class = centerbox><div class = ANT_text>+</div></div><div class = ANT_down><div class = ANT_text>*</div></div><div class = ANT_up><div class = ANT_text>*</div><div></div>"",""none"",""100"",""practice"","""","""","""","""","""","""","""","""","""",""""";;;
;;;
",""-1"",""-1"",""400"",""0"",""fixation"",""poldrack-single-stim"",""49"",""110188"",""0.0-48.0"",""attention-network-task"",""true"",""0"","""",""<div class = centerbox><div class = ANT_text>+</div></div>"",""none"",""400"",""practice"","""","""","""","""","""","""","""","""","""",""""";;;
;;;
",""931"",""37"",""931"",""0"",""stim"",""poldrack-categorize"",""50"",""112123"",""0.0-49.0"",""attention-network-task"",""true"",""0"","""",""<div class = centerbox><div class = ANT_text>+</div></div><div class = ANT_down><img class = ANT_img src = images/right_arrow.png></img><img class = ANT_img src = images/right_arrow.png></img><img class = ANT_img src = images/left_arrow.png></img><img class = ANT_img src = images/right_arrow.png></img><img class = ANT_img src = images/right_arrow.png></img></div></div>"",""37,39"",""931"",""practice"",""true"",""37"",""1000"",""left"",""incongruent"",""down"",""double"",""10"","""",""""";;;
;;;
",""-1"",""-1"",""2083"",""0"",""fixation"",""poldrack-single-stim"",""51"",""114213"",""0.0-50.0"",""attention-network-task"",""true"",""0"","""",""<div class = centerbox><div class = ANT_text>+</div></div>"",""none"",""2083"",""practice"","""","""","""","""","""","""","""","""","""",""""";;;
;;;
",""-1"",""-1"",""1192"",""0"",""fixation"",""poldrack-single-stim"",""52"",""115408"",""0.0-51.0"",""attention-network-task"",""true"",""0"","""",""<div class = centerbox><div class = ANT_text>+</div></div>"",""none"",""1192"",""practice"","""","""","""","""","""","""","""","""","""",""""";;;
;;;
",""-1"",""-1"",""100"",""0"",""nocue"",""poldrack-single-stim"",""53"",""115511"",""0.0-52.0"",""attention-network-task"",""true"",""0"","""",""<div class = centerbox><div class = ANT_text>+</div></div>"",""none"",""100"",""practice"","""","""","""","""","""","""","""","""","""",""""";;;
;;;
",""-1"",""-1"",""400"",""0"",""fixation"",""poldrack-single-stim"",""54"",""115914"",""0.0-53.0"",""attention-network-task"",""true"",""0"","""",""<div class = centerbox><div class = ANT_text>+</div></div>"",""none"",""400"",""practice"","""","""","""","""","""","""","""","""","""",""""";;;
;;;
",""678"",""37"",""678"",""0"",""stim"",""poldrack-categorize"",""55"",""117596"",""0.0-54.0"",""attention-network-task"",""true"",""0"","""",""<div class = centerbox><div class = ANT_text>+</div></div><div class = ANT_up><img class = ANT_img src = images/left_arrow.png></img><img class = ANT_img src = images/left_arrow.png></img><img class = ANT_img src = images/left_arrow.png></img><img class = ANT_img src = images/left_arrow.png></img><img class = ANT_img src = images/left_arrow.png></img></div></div>"",""37,39"",""678"",""practice"",""true"",""37"",""1000"",""left"",""congruent"",""up"",""nocue"",""11"","""",""""";;;
;;;
",""-1"",""-1"",""1630"",""0"",""fixation"",""poldrack-single-stim"",""56"",""119241"",""0.0-55.0"",""attention-network-task"",""true"",""0"","""",""<div class = centerbox><div class = ANT_text>+</div></div>"",""none"",""1630"",""practice"","""","""","""","""","""","""","""","""","""",""""";;;
;;;
",""-1"",""-1"",""1097"",""0"",""fixation"",""poldrack-single-stim"",""57"",""120340"",""0.0-56.0"",""attention-network-task"",""true"",""0"","""",""<div class = centerbox><div class = ANT_text>+</div></div>"",""none"",""1097"",""practice"","""","""","""","""","""","""","""","""","""",""""";;;
;;;
",""-1"",""-1"",""100"",""0"",""doublecue"",""poldrack-single-stim"",""58"",""120443"",""0.0-57.0"",""attention-network-task"",""true"",""0"","""",""<div class = centerbox><div class = ANT_text>+</div></div><div class = ANT_down><div class = ANT_text>*</div></div><div class = ANT_up><div class = ANT_text>*</div><div></div>"",""none"",""100"",""practice"","""","""","""","""","""","""","""","""","""",""""";;;
;;;
",""-1"",""-1"",""400"",""0"",""fixation"",""poldrack-single-stim"",""59"",""120847"",""0.0-58.0"",""attention-network-task"",""true"",""0"","""",""<div class = centerbox><div class = ANT_text>+</div></div>"",""none"",""400"",""practice"","""","""","""","""","""","""","""","""","""",""""";;;
;;;
",""873"",""39"",""873"",""0"",""stim"",""poldrack-categorize"",""60"",""122725"",""0.0-59.0"",""attention-network-task"",""true"",""0"","""",""<div class = centerbox><div class = ANT_text>+</div></div><div class = ANT_down><img class = ANT_img src = images/left_arrow.png></img><img class = ANT_img src = images/left_arrow.png></img><img class = ANT_img src = images/right_arrow.png></img><img class = ANT_img src = images/left_arrow.png></img><img class = ANT_img src = images/left_arrow.png></img></div></div>"",""37,39"",""873"",""practice"",""true"",""39"",""1000"",""right"",""incongruent"",""down"",""double"",""12"","""",""""";;;
;;;
",""-1"",""-1"",""1530"",""0"",""fixation"",""poldrack-single-stim"",""61"",""124271"",""0.0-60.0"",""attention-network-task"",""true"",""0"","""",""<div class = centerbox><div class = ANT_text>+</div></div>"",""none"",""1530"",""practice"","""","""","""","""","""","""","""","""","""",""""";;;
;;;
",""-1"",""-1"",""1175"",""0"",""fixation"",""poldrack-single-stim"",""62"",""125449"",""0.0-61.0"",""attention-network-task"",""true"",""0"","""",""<div class = centerbox><div class = ANT_text>+</div></div>"",""none"",""1175"",""practice"","""","""","""","""","""","""","""","""","""",""""";;;
;;;
",""-1"",""-1"",""100"",""0"",""nocue"",""poldrack-single-stim"",""63"",""125551"",""0.0-62.0"",""attention-network-task"",""true"",""0"","""",""<div class = centerbox><div class = ANT_text>+</div></div>"",""none"",""100"",""practice"","""","""","""","""","""","""","""","""","""",""""";;;
;;;
",""-1"",""-1"",""400"",""0"",""fixation"",""poldrack-single-stim"",""64"",""125954"",""0.0-63.0"",""attention-network-task"",""true"",""0"","""",""<div class = centerbox><div class = ANT_text>+</div></div>"",""none"",""400"",""practice"","""","""","""","""","""","""","""","""","""",""""";;;
;;;
",""646"",""39"",""646"",""0"",""stim"",""poldrack-categorize"",""65"",""127606"",""0.0-64.0"",""attention-network-task"",""true"",""0"","""",""<div class = centerbox><div class = ANT_text>+</div></div><div class = ANT_up><img class = ANT_img src = images/no_arrow.png></img><img class = ANT_img src = images/no_arrow.png></img><img class = ANT_img src = images/right_arrow.png></img><img class = ANT_img src = images/no_arrow.png></img><img class = ANT_img src = images/no_arrow.png></img></div></div>"",""37,39"",""646"",""practice"",""true"",""39"",""1000"",""right"",""neutral"",""up"",""nocue"",""13"","""",""""";;;
;;;
",""-1"",""-1"",""1679"",""0"",""fixation"",""poldrack-single-stim"",""66"",""129296"",""0.0-65.0"",""attention-network-task"",""true"",""0"","""",""<div class = centerbox><div class = ANT_text>+</div></div>"",""none"",""1679"",""practice"","""","""","""","""","""","""","""","""","""",""""";;;
;;;
",""-1"",""-1"",""795"",""0"",""fixation"",""poldrack-single-stim"",""67"",""130093"",""0.0-66.0"",""attention-network-task"",""true"",""0"","""",""<div class = centerbox><div class = ANT_text>+</div></div>"",""none"",""795"",""practice"","""","""","""","""","""","""","""","""","""",""""";;;
;;;
",""-1"",""-1"",""100"",""0"",""doublecue"",""poldrack-single-stim"",""68"",""130197"",""0.0-67.0"",""attention-network-task"",""true"",""0"","""",""<div class = centerbox><div class = ANT_text>+</div></div><div class = ANT_down><div class = ANT_text>*</div></div><div class = ANT_up><div class = ANT_text>*</div><div></div>"",""none"",""100"",""practice"","""","""","""","""","""","""","""","""","""",""""";;;
;;;
",""-1"",""-1"",""400"",""0"",""fixation"",""poldrack-single-stim"",""69"",""130601"",""0.0-68.0"",""attention-network-task"",""true"",""0"","""",""<div class = centerbox><div class = ANT_text>+</div></div>"",""none"",""400"",""practice"","""","""","""","""","""","""","""","""","""",""""";;;
;;;
",""648"",""39"",""648"",""0"",""stim"",""poldrack-categorize"",""70"",""132254"",""0.0-69.0"",""attention-network-task"",""true"",""0"","""",""<div class = centerbox><div class = ANT_text>+</div></div><div class = ANT_down><img class = ANT_img src = images/right_arrow.png></img><img class = ANT_img src = images/right_arrow.png></img><img class = ANT_img src = images/right_arrow.png></img><img class = ANT_img src = images/right_arrow.png></img><img class = ANT_img src = images/right_arrow.png></img></div></div>"",""37,39"",""648"",""practice"",""true"",""39"",""1000"",""right"",""congruent"",""down"",""double"",""14"","""",""""";;;
;;;
",""-1"",""-1"",""2057"",""0"",""fixation"",""poldrack-single-stim"",""71"",""134327"",""0.0-70.0"",""attention-network-task"",""true"",""0"","""",""<div class = centerbox><div class = ANT_text>+</div></div>"",""none"",""2057"",""practice"","""","""","""","""","""","""","""","""","""",""""";;;
;;;
",""-1"",""-1"",""1016"",""0"",""fixation"",""poldrack-single-stim"",""72"",""135346"",""0.0-71.0"",""attention-network-task"",""true"",""0"","""",""<div class = centerbox><div class = ANT_text>+</div></div>"",""none"",""1016"",""practice"","""","""","""","""","""","""","""","""","""",""""";;;
;;;
",""-1"",""-1"",""100"",""0"",""spatialcue"",""poldrack-single-stim"",""73"",""135449"",""0.0-72.0"",""attention-network-task"",""true"",""0"","""",""<div class = centerbox><div class = ANT_text>+</div></div><div class = centerbox><div class = ANT_down><div class = ANT_text>*</p></div></div>"",""none"",""100"",""practice"","""","""","""","""","""","""","""","""","""",""""";;;
;;;
",""-1"",""-1"",""400"",""0"",""fixation"",""poldrack-single-stim"",""74"",""135851"",""0.0-73.0"",""attention-network-task"",""true"",""0"","""",""<div class = centerbox><div class = ANT_text>+</div></div>"",""none"",""400"",""practice"","""","""","""","""","""","""","""","""","""",""""";;;
;;;
",""646"",""37"",""646"",""0"",""stim"",""poldrack-categorize"",""75"",""137502"",""0.0-74.0"",""attention-network-task"",""true"",""0"","""",""<div class = centerbox><div class = ANT_text>+</div></div><div class = ANT_down><img class = ANT_img src = images/left_arrow.png></img><img class = ANT_img src = images/left_arrow.png></img><img class = ANT_img src = images/left_arrow.png></img><img class = ANT_img src = images/left_arrow.png></img><img class = ANT_img src = images/left_arrow.png></img></div></div>"",""37,39"",""646"",""practice"",""true"",""37"",""1000"",""left"",""congruent"",""down"",""spatial"",""15"","""",""""";;;
;;;
",""-1"",""-1"",""1838"",""0"",""fixation"",""poldrack-single-stim"",""76"",""139356"",""0.0-75.0"",""attention-network-task"",""true"",""0"","""",""<div class = centerbox><div class = ANT_text>+</div></div>"",""none"",""1838"",""practice"","""","""","""","""","""","""","""","""","""",""""";;;
;;;
",""-1"",""-1"",""1159"",""0"",""fixation"",""poldrack-single-stim"",""77"",""140518"",""0.0-76.0"",""attention-network-task"",""true"",""0"","""",""<div class = centerbox><div class = ANT_text>+</div></div>"",""none"",""1159"",""practice"","""","""","""","""","""","""","""","""","""",""""";;;
;;;
",""-1"",""-1"",""100"",""0"",""doublecue"",""poldrack-single-stim"",""78"",""140621"",""0.0-77.0"",""attention-network-task"",""true"",""0"","""",""<div class = centerbox><div class = ANT_text>+</div></div><div class = ANT_down><div class = ANT_text>*</div></div><div class = ANT_up><div class = ANT_text>*</div><div></div>"",""none"",""100"",""practice"","""","""","""","""","""","""","""","""","""",""""";;;
;;;
",""-1"",""-1"",""400"",""0"",""fixation"",""poldrack-single-stim"",""79"",""141024"",""0.0-78.0"",""attention-network-task"",""true"",""0"","""",""<div class = centerbox><div class = ANT_text>+</div></div>"",""none"",""400"",""practice"","""","""","""","""","""","""","""","""","""",""""";;;
;;;
",""568"",""37"",""568"",""0"",""stim"",""poldrack-categorize"",""80"",""142596"",""0.0-79.0"",""attention-network-task"",""true"",""0"","""",""<div class = centerbox><div class = ANT_text>+</div></div><div class = ANT_down><img class = ANT_img src = images/left_arrow.png></img><img class = ANT_img src = images/left_arrow.png></img><img class = ANT_img src = images/left_arrow.png></img><img class = ANT_img src = images/left_arrow.png></img><img class = ANT_img src = images/left_arrow.png></img></div></div>"",""37,39"",""568"",""practice"",""true"",""37"",""1000"",""left"",""congruent"",""down"",""double"",""16"","""",""""";;;
;;;
",""-1"",""-1"",""1773"",""0"",""fixation"",""poldrack-single-stim"",""81"",""144387"",""0.0-80.0"",""attention-network-task"",""true"",""0"","""",""<div class = centerbox><div class = ANT_text>+</div></div>"",""none"",""1773"",""practice"","""","""","""","""","""","""","""","""","""",""""";;;
;;;
",""-1"",""-1"",""643"",""0"",""fixation"",""poldrack-single-stim"",""82"",""145033"",""0.0-81.0"",""attention-network-task"",""true"",""0"","""",""<div class = centerbox><div class = ANT_text>+</div></div>"",""none"",""643"",""practice"","""","""","""","""","""","""","""","""","""",""""";;;
;;;
",""-1"",""-1"",""100"",""0"",""spatialcue"",""poldrack-single-stim"",""83"",""145134"",""0.0-82.0"",""attention-network-task"",""true"",""0"","""",""<div class = centerbox><div class = ANT_text>+</div></div><div class = centerbox><div class = ANT_down><div class = ANT_text>*</p></div></div>"",""none"",""100"",""practice"","""","""","""","""","""","""","""","""","""",""""";;;
;;;
",""-1"",""-1"",""400"",""0"",""fixation"",""poldrack-single-stim"",""84"",""145537"",""0.0-83.0"",""attention-network-task"",""true"",""0"","""",""<div class = centerbox><div class = ANT_text>+</div></div>"",""none"",""400"",""practice"","""","""","""","""","""","""","""","""","""",""""";;;
;;;
",""687"",""37"",""687"",""0"",""stim"",""poldrack-categorize"",""85"",""147228"",""0.0-84.0"",""attention-network-task"",""true"",""0"","""",""<div class = centerbox><div class = ANT_text>+</div></div><div class = ANT_down><img class = ANT_img src = images/no_arrow.png></img><img class = ANT_img src = images/no_arrow.png></img><img class = ANT_img src = images/left_arrow.png></img><img class = ANT_img src = images/no_arrow.png></img><img class = ANT_img src = images/no_arrow.png></img></div></div>"",""37,39"",""687"",""practice"",""true"",""37"",""1000"",""left"",""neutral"",""down"",""spatial"",""17"","""",""""";;;
;;;
",""-1"",""-1"",""2170"",""0"",""fixation"",""poldrack-single-stim"",""86"",""149413"",""0.0-85.0"",""attention-network-task"",""true"",""0"","""",""<div class = centerbox><div class = ANT_text>+</div></div>"",""none"",""2170"",""practice"","""","""","""","""","""","""","""","""","""",""""";;;
;;;
",""-1"",""-1"",""1040"",""0"",""fixation"",""poldrack-single-stim"",""87"",""150456"",""0.0-86.0"",""attention-network-task"",""true"",""0"","""",""<div class = centerbox><div class = ANT_text>+</div></div>"",""none"",""1040"",""practice"","""","""","""","""","""","""","""","""","""",""""";;;
;;;
",""-1"",""-1"",""100"",""0"",""nocue"",""poldrack-single-stim"",""88"",""150561"",""0.0-87.0"",""attention-network-task"",""true"",""0"","""",""<div class = centerbox><div class = ANT_text>+</div></div>"",""none"",""100"",""practice"","""","""","""","""","""","""","""","""","""",""""";;;
;;;
",""-1"",""-1"",""400"",""0"",""fixation"",""poldrack-single-stim"",""89"",""150965"",""0.0-88.0"",""attention-network-task"",""true"",""0"","""",""<div class = centerbox><div class = ANT_text>+</div></div>"",""none"",""400"",""practice"","""","""","""","""","""","""","""","""","""",""""";;;
;;;
",""837"",""37"",""837"",""0"",""stim"",""poldrack-categorize"",""90"",""152806"",""0.0-89.0"",""attention-network-task"",""true"",""0"","""",""<div class = centerbox><div class = ANT_text>+</div></div><div class = ANT_up><img class = ANT_img src = images/right_arrow.png></img><img class = ANT_img src = images/right_arrow.png></img><img class = ANT_img src = images/left_arrow.png></img><img class = ANT_img src = images/right_arrow.png></img><img class = ANT_img src = images/right_arrow.png></img></div></div>"",""37,39"",""837"",""practice"",""true"",""37"",""1000"",""left"",""incongruent"",""up"",""nocue"",""18"","""",""""";;;
;;;
",""-1"",""-1"",""1623"",""0"",""fixation"",""poldrack-single-stim"",""91"",""154448"",""0.0-90.0"",""attention-network-task"",""true"",""0"","""",""<div class = centerbox><div class = ANT_text>+</div></div>"",""none"",""1623"",""practice"","""","""","""","""","""","""","""","""","""",""""";;;
;;;
",""-1"",""-1"",""979"",""0"",""fixation"",""poldrack-single-stim"",""92"",""155430"",""0.0-91.0"",""attention-network-task"",""true"",""0"","""",""<div class = centerbox><div class = ANT_text>+</div></div>"",""none"",""979"",""practice"","""","""","""","""","""","""","""","""","""",""""";;;
;;;
",""-1"",""-1"",""100"",""0"",""centercue"",""poldrack-single-stim"",""93"",""155533"",""0.0-92.0"",""attention-network-task"",""true"",""0"","""",""<div class = centerbox><div class = ANT_centercue_text>*</div></div>"",""none"",""100"",""practice"","""","""","""","""","""","""","""","""","""",""""";;;
;;;
",""-1"",""-1"",""400"",""0"",""fixation"",""poldrack-single-stim"",""94"",""155936"",""0.0-93.0"",""attention-network-task"",""true"",""0"","""",""<div class = centerbox><div class = ANT_text>+</div></div>"",""none"",""400"",""practice"","""","""","""","""","""","""","""","""","""",""""";;;
;;;
",""616"",""37"",""616"",""0"",""stim"",""poldrack-categorize"",""95"",""157556"",""0.0-94.0"",""attention-network-task"",""true"",""0"","""",""<div class = centerbox><div class = ANT_text>+</div></div><div class = ANT_up><img class = ANT_img src = images/no_arrow.png></img><img class = ANT_img src = images/no_arrow.png></img><img class = ANT_img src = images/left_arrow.png></img><img class = ANT_img src = images/no_arrow.png></img><img class = ANT_img src = images/no_arrow.png></img></div></div>"",""37,39"",""616"",""practice"",""true"",""37"",""1000"",""left"",""neutral"",""up"",""center"",""19"","""",""""";;;
;;;
",""-1"",""-1"",""1905"",""0"",""fixation"",""poldrack-single-stim"",""96"",""159479"",""0.0-95.0"",""attention-network-task"",""true"",""0"","""",""<div class = centerbox><div class = ANT_text>+</div></div>"",""none"",""1905"",""practice"","""","""","""","""","""","""","""","""","""",""""";;;
;;;
",""-1"",""-1"",""860"",""0"",""fixation"",""poldrack-single-stim"",""97"",""160342"",""0.0-96.0"",""attention-network-task"",""true"",""0"","""",""<div class = centerbox><div class = ANT_text>+</div></div>"",""none"",""860"",""practice"","""","""","""","""","""","""","""","""","""",""""";;;
;;;
",""-1"",""-1"",""100"",""0"",""centercue"",""poldrack-single-stim"",""98"",""160446"",""0.0-97.0"",""attention-network-task"",""true"",""0"","""",""<div class = centerbox><div class = ANT_centercue_text>*</div></div>"",""none"",""100"",""practice"","""","""","""","""","""","""","""","""","""",""""";;;
;;;
",""-1"",""-1"",""400"",""0"",""fixation"",""poldrack-single-stim"",""99"",""160849"",""0.0-98.0"",""attention-network-task"",""true"",""0"","""",""<div class = centerbox><div class = ANT_text>+</div></div>"",""none"",""400"",""practice"","""","""","""","""","""","""","""","""","""",""""";;;
;;;
",""648"",""39"",""648"",""0"",""stim"",""poldrack-categorize"",""100"",""162500"",""0.0-99.0"",""attention-network-task"",""true"",""0"","""",""<div class = centerbox><div class = ANT_text>+</div></div><div class = ANT_up><img class = ANT_img src = images/left_arrow.png></img><img class = ANT_img src = images/left_arrow.png></img><img class = ANT_img src = images/right_arrow.png></img><img class = ANT_img src = images/left_arrow.png></img><img class = ANT_img src = images/left_arrow.png></img></div></div>"",""37,39"",""648"",""practice"",""true"",""39"",""1000"",""right"",""incongruent"",""up"",""center"",""20"","""",""""";;;
;;;
",""-1"",""-1"",""1992"",""0"",""fixation"",""poldrack-single-stim"",""101"",""164513"",""0.0-100.0"",""attention-network-task"",""true"",""0"","""",""<div class = centerbox><div class = ANT_text>+</div></div>"",""none"",""1992"",""practice"","""","""","""","""","""","""","""","""","""",""""";;;
;;;
",""-1"",""-1"",""917"",""0"",""fixation"",""poldrack-single-stim"",""102"",""165433"",""0.0-101.0"",""attention-network-task"",""true"",""0"","""",""<div class = centerbox><div class = ANT_text>+</div></div>"",""none"",""917"",""practice"","""","""","""","""","""","""","""","""","""",""""";;;
;;;
",""-1"",""-1"",""100"",""0"",""spatialcue"",""poldrack-single-stim"",""103"",""165537"",""0.0-102.0"",""attention-network-task"",""true"",""0"","""",""<div class = centerbox><div class = ANT_text>+</div></div><div class = centerbox><div class = ANT_down><div class = ANT_text>*</p></div></div>"",""none"",""100"",""practice"","""","""","""","""","""","""","""","""","""",""""";;;
;;;
",""-1"",""-1"",""400"",""0"",""fixation"",""poldrack-single-stim"",""104"",""165939"",""0.0-103.0"",""attention-network-task"",""true"",""0"","""",""<div class = centerbox><div class = ANT_text>+</div></div>"",""none"",""400"",""practice"","""","""","""","""","""","""","""","""","""",""""";;;
;;;
",""710"",""37"",""710"",""0"",""stim"",""poldrack-categorize"",""105"",""167654"",""0.0-104.0"",""attention-network-task"",""true"",""0"","""",""<div class = centerbox><div class = ANT_text>+</div></div><div class = ANT_down><img class = ANT_img src = images/right_arrow.png></img><img class = ANT_img src = images/right_arrow.png></img><img class = ANT_img src = images/left_arrow.png></img><img class = ANT_img src = images/right_arrow.png></img><img class = ANT_img src = images/right_arrow.png></img></div></div>"",""37,39"",""710"",""practice"",""true"",""37"",""1000"",""left"",""incongruent"",""down"",""spatial"",""21"","""",""""";;;
;;;
",""-1"",""-1"",""1873"",""0"",""fixation"",""poldrack-single-stim"",""106"",""169544"",""0.0-105.0"",""attention-network-task"",""true"",""0"","""",""<div class = centerbox><div class = ANT_text>+</div></div>"",""none"",""1873"",""practice"","""","""","""","""","""","""","""","""","""",""""";;;
;;;
",""-1"",""-1"",""653"",""0"",""fixation"",""poldrack-single-stim"",""107"",""170199"",""0.0-106.0"",""attention-network-task"",""true"",""0"","""",""<div class = centerbox><div class = ANT_text>+</div></div>"",""none"",""653"",""practice"","""","""","""","""","""","""","""","""","""",""""";;;
;;;
",""-1"",""-1"",""100"",""0"",""nocue"",""poldrack-single-stim"",""108"",""170301"",""0.0-107.0"",""attention-network-task"",""true"",""0"","""",""<div class = centerbox><div class = ANT_text>+</div></div>"",""none"",""100"",""practice"","""","""","""","""","""","""","""","""","""",""""";;;
;;;
",""-1"",""-1"",""400"",""0"",""fixation"",""poldrack-single-stim"",""109"",""170704"",""0.0-108.0"",""attention-network-task"",""true"",""0"","""",""<div class = centerbox><div class = ANT_text>+</div></div>"",""none"",""400"",""practice"","""","""","""","""","""","""","""","""","""",""""";;;
;;;
",""601"",""39"",""601"",""0"",""stim"",""poldrack-categorize"",""110"",""172308"",""0.0-109.0"",""attention-network-task"",""true"",""0"","""",""<div class = centerbox><div class = ANT_text>+</div></div><div class = ANT_up><img class = ANT_img src = images/left_arrow.png></img><img class = ANT_img src = images/left_arrow.png></img><img class = ANT_img src = images/right_arrow.png></img><img class = ANT_img src = images/left_arrow.png></img><img class = ANT_img src = images/left_arrow.png></img></div></div>"",""37,39"",""601"",""practice"",""true"",""39"",""1000"",""right"",""incongruent"",""up"",""nocue"",""22"","""",""""";;;
;;;
",""-1"",""-1"",""2246"",""0"",""fixation"",""poldrack-single-stim"",""111"",""174578"",""0.0-110.0"",""attention-network-task"",""true"",""0"","""",""<div class = centerbox><div class = ANT_text>+</div></div>"",""none"",""2246"",""practice"","""","""","""","""","""","""","""","""","""",""""";;;
;;;
",""-1"",""-1"",""1117"",""0"",""fixation"",""poldrack-single-stim"",""112"",""175698"",""0.0-111.0"",""attention-network-task"",""true"",""0"","""",""<div class = centerbox><div class = ANT_text>+</div></div>"",""none"",""1117"",""practice"","""","""","""","""","""","""","""","""","""",""""";;;
;;;
",""-1"",""-1"",""100"",""0"",""centercue"",""poldrack-single-stim"",""113"",""175800"",""0.0-112.0"",""attention-network-task"",""true"",""0"","""",""<div class = centerbox><div class = ANT_centercue_text>*</div></div>"",""none"",""100"",""practice"","""","""","""","""","""","""","""","""","""",""""";;;
;;;
",""-1"",""-1"",""400"",""0"",""fixation"",""poldrack-single-stim"",""114"",""176202"",""0.0-113.0"",""attention-network-task"",""true"",""0"","""",""<div class = centerbox><div class = ANT_text>+</div></div>"",""none"",""400"",""practice"","""","""","""","""","""","""","""","""","""",""""";;;
;;;
",""600"",""37"",""600"",""0"",""stim"",""poldrack-categorize"",""115"",""177807"",""0.0-114.0"",""attention-network-task"",""true"",""0"","""",""<div class = centerbox><div class = ANT_text>+</div></div><div class = ANT_up><img class = ANT_img src = images/left_arrow.png></img><img class = ANT_img src = images/left_arrow.png></img><img class = ANT_img src = images/left_arrow.png></img><img class = ANT_img src = images/left_arrow.png></img><img class = ANT_img src = images/left_arrow.png></img></div></div>"",""37,39"",""600"",""practice"",""true"",""37"",""1000"",""left"",""congruent"",""up"",""center"",""23"","""",""""";;;
;;;
",""-1"",""-1"",""1783"",""0"",""fixation"",""poldrack-single-stim"",""116"",""179610"",""0.0-115.0"",""attention-network-task"",""true"",""0"","""",""<div class = centerbox><div class = ANT_text>+</div></div>"",""none"",""1783"",""practice"","""","""","""","""","""","""","""","""","""",""""";;;
;;;
",""-1"",""-1"",""938"",""0"",""fixation"",""poldrack-single-stim"",""117"",""180551"",""0.0-116.0"",""attention-network-task"",""true"",""0"","""",""<div class = centerbox><div class = ANT_text>+</div></div>"",""none"",""938"",""practice"","""","""","""","""","""","""","""","""","""",""""";;;
;;;
",""-1"",""-1"",""100"",""0"",""doublecue"",""poldrack-single-stim"",""118"",""180654"",""0.0-117.0"",""attention-network-task"",""true"",""0"","""",""<div class = centerbox><div class = ANT_text>+</div></div><div class = ANT_down><div class = ANT_text>*</div></div><div class = ANT_up><div class = ANT_text>*</div><div></div>"",""none"",""100"",""practice"","""","""","""","""","""","""","""","""","""",""""";;;
;;;
",""-1"",""-1"",""400"",""0"",""fixation"",""poldrack-single-stim"",""119"",""181057"",""0.0-118.0"",""attention-network-task"",""true"",""0"","""",""<div class = centerbox><div class = ANT_text>+</div></div>"",""none"",""400"",""practice"","""","""","""","""","""","""","""","""","""",""""";;;
;;;
",""631"",""37"",""631"",""0"",""stim"",""poldrack-categorize"",""120"",""182693"",""0.0-119.0"",""attention-network-task"",""true"",""0"","""",""<div class = centerbox><div class = ANT_text>+</div></div><div class = ANT_down><img class = ANT_img src = images/no_arrow.png></img><img class = ANT_img src = images/no_arrow.png></img><img class = ANT_img src = images/left_arrow.png></img><img class = ANT_img src = images/no_arrow.png></img><img class = ANT_img src = images/no_arrow.png></img></div></div>"",""37,39"",""631"",""practice"",""true"",""37"",""1000"",""left"",""neutral"",""down"",""double"",""24"","""",""""";;;
;;;
",""-1"",""-1"",""1931"",""0"",""fixation"",""poldrack-single-stim"",""121"",""184638"",""0.0-120.0"",""attention-network-task"",""true"",""0"","""",""<div class = centerbox><div class = ANT_text>+</div></div>"",""none"",""1931"",""practice"","""","""","""","""","""","""","""","""","""",""""";;;
;;;
"<div class = centerbox><p class = block-text>Take a break! Press any key to continue.</p></div>,""2434"",""13"",""2434"",""1000"",""rest block"",""poldrack-text"",""122"",""187074"",""0.0-121.0"",""attention-network-task"",""true"",""0"","""","""","""","""","""","""","""","""","""","""","""","""","""","""",""""";;;
;;;
"<div class = centerbox><p class = center-block-text>We will now start the test. Press <strong>enter</strong> to begin.</p></div>,""3013"",""13"",""3013"",""1000"",""intro"",""poldrack-text"",""123"",""191089"",""0.0-122.0"",""attention-network-task"",""true"",""0"","""","""","""","""",""test"","""","""","""","""","""","""","""","""","""",""""";;;
;;;
",""-1"",""-1"",""1535"",""0"",""fixation"",""poldrack-single-stim"",""124"",""193629"",""0.0-123.0"",""attention-network-task"",""true"",""0"","""",""<div class = centerbox><div class = ANT_text>+</div></div>"",""none"",""1535"",""test"","""","""","""","""","""","""","""","""","""",""""";;;
;;;
",""-1"",""-1"",""100"",""0"",""spatialcue"",""poldrack-single-stim"",""125"",""193731"",""0.0-124.0"",""attention-network-task"",""true"",""0"","""",""<div class = centerbox><div class = ANT_text>+</div></div><div class = centerbox><div class = ANT_down><div class = ANT_text>*</p></div></div>"",""none"",""100"",""test"","""","""","""","""","""","""","""","""","""",""""";;;
;;;
",""-1"",""-1"",""400"",""0"",""fixation"",""poldrack-single-stim"",""126"",""194135"",""0.0-125.0"",""attention-network-task"",""true"",""0"","""",""<div class = centerbox><div class = ANT_text>+</div></div>"",""none"",""400"",""test"","""","""","""","""","""","""","""","""","""",""""";;;
;;;
",""502"",""37"",""502"",""0"",""stim"",""poldrack-single-stim"",""127"",""194641"",""0.0-126.0"",""attention-network-task"",""true"",""0"","""",""<div class = centerbox><div class = ANT_text>+</div></div><div class = ANT_down><img class = ANT_img src = images/no_arrow.png></img><img class = ANT_img src = images/no_arrow.png></img><img class = ANT_img src = images/left_arrow.png></img><img class = ANT_img src = images/no_arrow.png></img><img class = ANT_img src = images/no_arrow.png></img></div></div>"",""37,39"",""502"",""test"",""true"",""37"","""",""left"",""neutral"",""down"",""spatial"",""1"","""",""""";;;
;;;
",""-1"",""-1"",""1463"",""0"",""fixation"",""poldrack-single-stim"",""128"",""196116"",""0.0-127.0"",""attention-network-task"",""true"",""0"","""",""<div class = centerbox><div class = ANT_text>+</div></div>"",""none"",""1463"",""test"","""","""","""","""","""","""","""","""","""",""""";;;
;;;
",""-1"",""-1"",""630"",""0"",""fixation"",""poldrack-single-stim"",""129"",""196749"",""0.0-128.0"",""attention-network-task"",""true"",""0"","""",""<div class = centerbox><div class = ANT_text>+</div></div>"",""none"",""630"",""test"","""","""","""","""","""","""","""","""","""",""""";;;
;;;
",""-1"",""-1"",""100"",""0"",""doublecue"",""poldrack-single-stim"",""130"",""196852"",""0.0-129.0"",""attention-network-task"",""true"",""0"","""",""<div class = centerbox><div class = ANT_text>+</div></div><div class = ANT_down><div class = ANT_text>*</div></div><div class = ANT_up><div class = ANT_text>*</div><div></div>"",""none"",""100"",""test"","""","""","""","""","""","""","""","""","""",""""";;;
;;;
",""-1"",""-1"",""400"",""0"",""fixation"",""poldrack-single-stim"",""131"",""197255"",""0.0-130.0"",""attention-network-task"",""true"",""0"","""",""<div class = centerbox><div class = ANT_text>+</div></div>"",""none"",""400"",""test"","""","""","""","""","""","""","""","""","""",""""";;;
;;;
",""666"",""37"",""666"",""0"",""stim"",""poldrack-single-stim"",""132"",""197923"",""0.0-131.0"",""attention-network-task"",""true"",""0"","""",""<div class = centerbox><div class = ANT_text>+</div></div><div class = ANT_down><img class = ANT_img src = images/right_arrow.png></img><img class = ANT_img src = images/right_arrow.png></img><img class = ANT_img src = images/left_arrow.png></img><img class = ANT_img src = images/right_arrow.png></img><img class = ANT_img src = images/right_arrow.png></img></div></div>"",""37,39"",""666"",""test"",""true"",""37"","""",""left"",""incongruent"",""down"",""double"",""2"","""",""""";;;
;;;
",""-1"",""-1"",""2204"",""0"",""fixation"",""poldrack-single-stim"",""133"",""200144"",""0.0-132.0"",""attention-network-task"",""true"",""0"","""",""<div class = centerbox><div class = ANT_text>+</div></div>"",""none"",""2204"",""test"","""","""","""","""","""","""","""","""","""",""""";;;
;;;
",""-1"",""-1"",""1020"",""0"",""fixation"",""poldrack-single-stim"",""134"",""201166"",""0.0-133.0"",""attention-network-task"",""true"",""0"","""",""<div class = centerbox><div class = ANT_text>+</div></div>"",""none"",""1020"",""test"","""","""","""","""","""","""","""","""","""",""""";;;
;;;
",""-1"",""-1"",""100"",""0"",""nocue"",""poldrack-single-stim"",""135"",""201269"",""0.0-134.0"",""attention-network-task"",""true"",""0"","""",""<div class = centerbox><div class = ANT_text>+</div></div>"",""none"",""100"",""test"","""","""","""","""","""","""","""","""","""",""""";;;
;;;
",""-1"",""-1"",""400"",""0"",""fixation"",""poldrack-single-stim"",""136"",""201673"",""0.0-135.0"",""attention-network-task"",""true"",""0"","""",""<div class = centerbox><div class = ANT_text>+</div></div>"",""none"",""400"",""test"","""","""","""","""","""","""","""","""","""",""""";;;
;;;
",""607"",""37"",""607"",""0"",""stim"",""poldrack-single-stim"",""137"",""202281"",""0.0-136.0"",""attention-network-task"",""true"",""0"","""",""<div class = centerbox><div class = ANT_text>+</div></div><div class = ANT_down><img class = ANT_img src = images/left_arrow.png></img><img class = ANT_img src = images/left_arrow.png></img><img class = ANT_img src = images/left_arrow.png></img><img class = ANT_img src = images/left_arrow.png></img><img class = ANT_img src = images/left_arrow.png></img></div></div>"",""37,39"",""607"",""test"",""true"",""37"","""",""left"",""congruent"",""down"",""nocue"",""3"","""",""""";;;
;;;
",""-1"",""-1"",""1873"",""0"",""fixation"",""poldrack-single-stim"",""138"",""204171"",""0.0-137.0"",""attention-network-task"",""true"",""0"","""",""<div class = centerbox><div class = ANT_text>+</div></div>"",""none"",""1873"",""test"","""","""","""","""","""","""","""","""","""",""""";;;
;;;
",""-1"",""-1"",""461"",""0"",""fixation"",""poldrack-single-stim"",""139"",""204634"",""0.0-138.0"",""attention-network-task"",""true"",""0"","""",""<div class = centerbox><div class = ANT_text>+</div></div>"",""none"",""461"",""test"","""","""","""","""","""","""","""","""","""",""""";;;
;;;
",""-1"",""-1"",""100"",""0"",""spatialcue"",""poldrack-single-stim"",""140"",""204737"",""0.0-139.0"",""attention-network-task"",""true"",""0"","""",""<div class = centerbox><div class = ANT_text>+</div></div><div class = centerbox><div class = ANT_down><div class = ANT_text>*</p></div></div>"",""none"",""100"",""test"","""","""","""","""","""","""","""","""","""",""""";;;
;;;
",""-1"",""-1"",""400"",""0"",""fixation"",""poldrack-single-stim"",""141"",""205140"",""0.0-140.0"",""attention-network-task"",""true"",""0"","""",""<div class = centerbox><div class = ANT_text>+</div></div>"",""none"",""400"",""test"","""","""","""","""","""","""","""","""","""",""""";;;
;;;
",""491"",""39"",""491"",""0"",""stim"",""poldrack-single-stim"",""142"",""205634"",""0.0-141.0"",""attention-network-task"",""true"",""0"","""",""<div class = centerbox><div class = ANT_text>+</div></div><div class = ANT_down><img class = ANT_img src = images/no_arrow.png></img><img class = ANT_img src = images/no_arrow.png></img><img class = ANT_img src = images/right_arrow.png></img><img class = ANT_img src = images/no_arrow.png></img><img class = ANT_img src = images/no_arrow.png></img></div></div>"",""37,39"",""491"",""test"",""true"",""39"","""",""right"",""neutral"",""down"",""spatial"",""4"","""",""""";;;
;;;
",""-1"",""-1"",""2548"",""0"",""fixation"",""poldrack-single-stim"",""143"",""208197"",""0.0-142.0"",""attention-network-task"",""true"",""0"","""",""<div class = centerbox><div class = ANT_text>+</div></div>"",""none"",""2548"",""test"","""","""","""","""","""","""","""","""","""",""""";;;
;;;
",""-1"",""-1"",""1048"",""0"",""fixation"",""poldrack-single-stim"",""144"",""209248"",""0.0-143.0"",""attention-network-task"",""true"",""0"","""",""<div class = centerbox><div class = ANT_text>+</div></div>"",""none"",""1048"",""test"","""","""","""","""","""","""","""","""","""",""""";;;
;;;
",""-1"",""-1"",""100"",""0"",""doublecue"",""poldrack-single-stim"",""145"",""209350"",""0.0-144.0"",""attention-network-task"",""true"",""0"","""",""<div class = centerbox><div class = ANT_text>+</div></div><div class = ANT_down><div class = ANT_text>*</div></div><div class = ANT_up><div class = ANT_text>*</div><div></div>"",""none"",""100"",""test"","""","""","""","""","""","""","""","""","""",""""";;;
;;;
",""-1"",""-1"",""400"",""0"",""fixation"",""poldrack-single-stim"",""146"",""209754"",""0.0-145.0"",""attention-network-task"",""true"",""0"","""",""<div class = centerbox><div class = ANT_text>+</div></div>"",""none"",""400"",""test"","""","""","""","""","""","""","""","""","""",""""";;;
;;;
",""559"",""39"",""559"",""0"",""stim"",""poldrack-single-stim"",""147"",""210315"",""0.0-146.0"",""attention-network-task"",""true"",""0"","""",""<div class = centerbox><div class = ANT_text>+</div></div><div class = ANT_down><img class = ANT_img src = images/right_arrow.png></img><img class = ANT_img src = images/right_arrow.png></img><img class = ANT_img src = images/right_arrow.png></img><img class = ANT_img src = images/right_arrow.png></img><img class = ANT_img src = images/right_arrow.png></img></div></div>"",""37,39"",""559"",""test"",""true"",""39"","""",""right"",""congruent"",""down"",""double"",""5"","""",""""";;;
;;;
",""-1"",""-1"",""1893"",""0"",""fixation"",""poldrack-single-stim"",""148"",""212231"",""0.0-147.0"",""attention-network-task"",""true"",""0"","""",""<div class = centerbox><div class = ANT_text>+</div></div>"",""none"",""1893"",""test"","""","""","""","""","""","""","""","""","""",""""";;;
;;;
",""-1"",""-1"",""813"",""0"",""fixation"",""poldrack-single-stim"",""149"",""213046"",""0.0-148.0"",""attention-network-task"",""true"",""0"","""",""<div class = centerbox><div class = ANT_text>+</div></div>"",""none"",""813"",""test"","""","""","""","""","""","""","""","""","""",""""";;;
;;;
",""-1"",""-1"",""100"",""0"",""centercue"",""poldrack-single-stim"",""150"",""213148"",""0.0-149.0"",""attention-network-task"",""true"",""0"","""",""<div class = centerbox><div class = ANT_centercue_text>*</div></div>"",""none"",""100"",""test"","""","""","""","""","""","""","""","""","""",""""";;;
;;;
",""-1"",""-1"",""400"",""0"",""fixation"",""poldrack-single-stim"",""151"",""213551"",""0.0-150.0"",""attention-network-task"",""true"",""0"","""",""<div class = centerbox><div class = ANT_text>+</div></div>"",""none"",""400"",""test"","""","""","""","""","""","""","""","""","""",""""";;;
;;;
",""728"",""37"",""728"",""0"",""stim"",""poldrack-single-stim"",""152"",""214281"",""0.0-151.0"",""attention-network-task"",""true"",""0"","""",""<div class = centerbox><div class = ANT_text>+</div></div><div class = ANT_up><img class = ANT_img src = images/right_arrow.png></img><img class = ANT_img src = images/right_arrow.png></img><img class = ANT_img src = images/left_arrow.png></img><img class = ANT_img src = images/right_arrow.png></img><img class = ANT_img src = images/right_arrow.png></img></div></div>"",""37,39"",""728"",""test"",""true"",""37"","""",""left"",""incongruent"",""up"",""center"",""6"","""",""""";;;
;;;
",""-1"",""-1"",""1959"",""0"",""fixation"",""poldrack-single-stim"",""153"",""216258"",""0.0-152.0"",""attention-network-task"",""true"",""0"","""",""<div class = centerbox><div class = ANT_text>+</div></div>"",""none"",""1959"",""test"","""","""","""","""","""","""","""","""","""",""""";;;
;;;
",""-1"",""-1"",""951"",""0"",""fixation"",""poldrack-single-stim"",""154"",""217211"",""0.0-153.0"",""attention-network-task"",""true"",""0"","""",""<div class = centerbox><div class = ANT_text>+</div></div>"",""none"",""951"",""test"","""","""","""","""","""","""","""","""","""",""""";;;
;;;
",""-1"",""-1"",""100"",""0"",""spatialcue"",""poldrack-single-stim"",""155"",""217314"",""0.0-154.0"",""attention-network-task"",""true"",""0"","""",""<div class = centerbox><div class = ANT_text>+</div></div><div class = centerbox><div class = ANT_up><div class = ANT_text>*</p></div></div>"",""none"",""100"",""test"","""","""","""","""","""","""","""","""","""",""""";;;
;;;
",""-1"",""-1"",""400"",""0"",""fixation"",""poldrack-single-stim"",""156"",""217717"",""0.0-155.0"",""attention-network-task"",""true"",""0"","""",""<div class = centerbox><div class = ANT_text>+</div></div>"",""none"",""400"",""test"","""","""","""","""","""","""","""","""","""",""""";;;
;;;
",""659"",""37"",""659"",""0"",""stim"",""poldrack-single-stim"",""157"",""218378"",""0.0-156.0"",""attention-network-task"",""true"",""0"","""",""<div class = centerbox><div class = ANT_text>+</div></div><div class = ANT_up><img class = ANT_img src = images/right_arrow.png></img><img class = ANT_img src = images/right_arrow.png></img><img class = ANT_img src = images/left_arrow.png></img><img class = ANT_img src = images/right_arrow.png></img><img class = ANT_img src = images/right_arrow.png></img></div></div>"",""37,39"",""659"",""test"",""true"",""37"","""",""left"",""incongruent"",""up"",""spatial"",""7"","""",""""";;;
;;;
",""-1"",""-1"",""1890"",""0"",""fixation"",""poldrack-single-stim"",""158"",""220291"",""0.0-157.0"",""attention-network-task"",""true"",""0"","""",""<div class = centerbox><div class = ANT_text>+</div></div>"",""none"",""1890"",""test"","""","""","""","""","""","""","""","""","""",""""";;;
;;;
",""-1"",""-1"",""1029"",""0"",""fixation"",""poldrack-single-stim"",""159"",""221324"",""0.0-158.0"",""attention-network-task"",""true"",""0"","""",""<div class = centerbox><div class = ANT_text>+</div></div>"",""none"",""1029"",""test"","""","""","""","""","""","""","""","""","""",""""";;;
;;;
",""-1"",""-1"",""100"",""0"",""centercue"",""poldrack-single-stim"",""160"",""221427"",""0.0-159.0"",""attention-network-task"",""true"",""0"","""",""<div class = centerbox><div class = ANT_centercue_text>*</div></div>"",""none"",""100"",""test"","""","""","""","""","""","""","""","""","""",""""";;;
;;;
",""-1"",""-1"",""400"",""0"",""fixation"",""poldrack-single-stim"",""161"",""221830"",""0.0-160.0"",""attention-network-task"",""true"",""0"","""",""<div class = centerbox><div class = ANT_text>+</div></div>"",""none"",""400"",""test"","""","""","""","""","""","""","""","""","""",""""";;;
;;;
",""675"",""37"",""675"",""0"",""stim"",""poldrack-single-stim"",""162"",""222508"",""0.0-161.0"",""attention-network-task"",""true"",""0"","""",""<div class = centerbox><div class = ANT_text>+</div></div><div class = ANT_up><img class = ANT_img src = images/left_arrow.png></img><img class = ANT_img src = images/left_arrow.png></img><img class = ANT_img src = images/left_arrow.png></img><img class = ANT_img src = images/left_arrow.png></img><img class = ANT_img src = images/left_arrow.png></img></div></div>"",""37,39"",""675"",""test"",""true"",""37"","""",""left"",""congruent"",""up"",""center"",""8"","""",""""";;;
;;;
",""-1"",""-1"",""1796"",""0"",""fixation"",""poldrack-single-stim"",""163"",""224325"",""0.0-162.0"",""attention-network-task"",""true"",""0"","""",""<div class = centerbox><div class = ANT_text>+</div></div>"",""none"",""1796"",""test"","""","""","""","""","""","""","""","""","""",""""";;;
;;;
",""-1"",""-1"",""715"",""0"",""fixation"",""poldrack-single-stim"",""164"",""225043"",""0.0-163.0"",""attention-network-task"",""true"",""0"","""",""<div class = centerbox><div class = ANT_text>+</div></div>"",""none"",""715"",""test"","""","""","""","""","""","""","""","""","""",""""";;;
;;;
",""-1"",""-1"",""100"",""0"",""spatialcue"",""poldrack-single-stim"",""165"",""225146"",""0.0-164.0"",""attention-network-task"",""true"",""0"","""",""<div class = centerbox><div class = ANT_text>+</div></div><div class = centerbox><div class = ANT_up><div class = ANT_text>*</p></div></div>"",""none"",""100"",""test"","""","""","""","""","""","""","""","""","""",""""";;;
;;;
",""-1"",""-1"",""400"",""0"",""fixation"",""poldrack-single-stim"",""166"",""225548"",""0.0-165.0"",""attention-network-task"",""true"",""0"","""",""<div class = centerbox><div class = ANT_text>+</div></div>"",""none"",""400"",""test"","""","""","""","""","""","""","""","""","""",""""";;;
;;;
",""563"",""37"",""563"",""0"",""stim"",""poldrack-single-stim"",""167"",""226115"",""0.0-166.0"",""attention-network-task"",""true"",""0"","""",""<div class = centerbox><div class = ANT_text>+</div></div><div class = ANT_up><img class = ANT_img src = images/left_arrow.png></img><img class = ANT_img src = images/left_arrow.png></img><img class = ANT_img src = images/left_arrow.png></img><img class = ANT_img src = images/left_arrow.png></img><img class = ANT_img src = images/left_arrow.png></img></div></div>"",""37,39"",""563"",""test"",""true"",""37"","""",""left"",""congruent"",""up"",""spatial"",""9"","""",""""";;;
;;;
",""-1"",""-1"",""2222"",""0"",""fixation"",""poldrack-single-stim"",""168"",""228358"",""0.0-167.0"",""attention-network-task"",""true"",""0"","""",""<div class = centerbox><div class = ANT_text>+</div></div>"",""none"",""2222"",""test"","""","""","""","""","""","""","""","""","""",""""";;;
;;;
",""-1"",""-1"",""500"",""0"",""fixation"",""poldrack-single-stim"",""169"",""228861"",""0.0-168.0"",""attention-network-task"",""true"",""0"","""",""<div class = centerbox><div class = ANT_text>+</div></div>"",""none"",""500"",""test"","""","""","""","""","""","""","""","""","""",""""";;;
;;;
",""-1"",""-1"",""100"",""0"",""doublecue"",""poldrack-single-stim"",""170"",""228963"",""0.0-169.0"",""attention-network-task"",""true"",""0"","""",""<div class = centerbox><div class = ANT_text>+</div></div><div class = ANT_down><div class = ANT_text>*</div></div><div class = ANT_up><div class = ANT_text>*</div><div></div>"",""none"",""100"",""test"","""","""","""","""","""","""","""","""","""",""""";;;
;;;
",""-1"",""-1"",""400"",""0"",""fixation"",""poldrack-single-stim"",""171"",""229366"",""0.0-170.0"",""attention-network-task"",""true"",""0"","""",""<div class = centerbox><div class = ANT_text>+</div></div>"",""none"",""400"",""test"","""","""","""","""","""","""","""","""","""",""""";;;
;;;
",""675"",""39"",""675"",""0"",""stim"",""poldrack-single-stim"",""172"",""230044"",""0.0-171.0"",""attention-network-task"",""true"",""0"","""",""<div class = centerbox><div class = ANT_text>+</div></div><div class = ANT_up><img class = ANT_img src = images/left_arrow.png></img><img class = ANT_img src = images/left_arrow.png></img><img class = ANT_img src = images/right_arrow.png></img><img class = ANT_img src = images/left_arrow.png></img><img class = ANT_img src = images/left_arrow.png></img></div></div>"",""37,39"",""675"",""test"",""true"",""39"","""",""right"",""incongruent"",""up"",""double"",""10"","""",""""";;;
;;;
",""-1"",""-1"",""2325"",""0"",""fixation"",""poldrack-single-stim"",""173"",""232394"",""0.0-172.0"",""attention-network-task"",""true"",""0"","""",""<div class = centerbox><div class = ANT_text>+</div></div>"",""none"",""2325"",""test"","""","""","""","""","""","""","""","""","""",""""";;;
;;;
",""-1"",""-1"",""441"",""0"",""fixation"",""poldrack-single-stim"",""174"",""232838"",""0.0-173.0"",""attention-network-task"",""true"",""0"","""",""<div class = centerbox><div class = ANT_text>+</div></div>"",""none"",""441"",""test"","""","""","""","""","""","""","""","""","""",""""";;;
;;;
",""-1"",""-1"",""100"",""0"",""doublecue"",""poldrack-single-stim"",""175"",""232939"",""0.0-174.0"",""attention-network-task"",""true"",""0"","""",""<div class = centerbox><div class = ANT_text>+</div></div><div class = ANT_down><div class = ANT_text>*</div></div><div class = ANT_up><div class = ANT_text>*</div><div></div>"",""none"",""100"",""test"","""","""","""","""","""","""","""","""","""",""""";;;
;;;
",""-1"",""-1"",""400"",""0"",""fixation"",""poldrack-single-stim"",""176"",""233342"",""0.0-175.0"",""attention-network-task"",""true"",""0"","""",""<div class = centerbox><div class = ANT_text>+</div></div>"",""none"",""400"",""test"","""","""","""","""","""","""","""","""","""",""""";;;
;;;
",""563"",""39"",""563"",""0"",""stim"",""poldrack-single-stim"",""177"",""233907"",""0.0-176.0"",""attention-network-task"",""true"",""0"","""",""<div class = centerbox><div class = ANT_text>+</div></div><div class = ANT_up><img class = ANT_img src = images/right_arrow.png></img><img class = ANT_img src = images/right_arrow.png></img><img class = ANT_img src = images/right_arrow.png></img><img class = ANT_img src = images/right_arrow.png></img><img class = ANT_img src = images/right_arrow.png></img></div></div>"",""37,39"",""563"",""test"",""true"",""39"","""",""right"",""congruent"",""up"",""double"",""11"","""",""""";;;
;;;
",""-1"",""-1"",""2496"",""0"",""fixation"",""poldrack-single-stim"",""178"",""236425"",""0.0-177.0"",""attention-network-task"",""true"",""0"","""",""<div class = centerbox><div class = ANT_text>+</div></div>"",""none"",""2496"",""test"","""","""","""","""","""","""","""","""","""",""""";;;
;;;
",""-1"",""-1"",""566"",""0"",""fixation"",""poldrack-single-stim"",""179"",""236994"",""0.0-178.0"",""attention-network-task"",""true"",""0"","""",""<div class = centerbox><div class = ANT_text>+</div></div>"",""none"",""566"",""test"","""","""","""","""","""","""","""","""","""",""""";;;
;;;
",""-1"",""-1"",""100"",""0"",""doublecue"",""poldrack-single-stim"",""180"",""237096"",""0.0-179.0"",""attention-network-task"",""true"",""0"","""",""<div class = centerbox><div class = ANT_text>+</div></div><div class = ANT_down><div class = ANT_text>*</div></div><div class = ANT_up><div class = ANT_text>*</div><div></div>"",""none"",""100"",""test"","""","""","""","""","""","""","""","""","""",""""";;;
;;;
",""-1"",""-1"",""400"",""0"",""fixation"",""poldrack-single-stim"",""181"",""237499"",""0.0-180.0"",""attention-network-task"",""true"",""0"","""",""<div class = centerbox><div class = ANT_text>+</div></div>"",""none"",""400"",""test"","""","""","""","""","""","""","""","""","""",""""";;;
;;;
",""613"",""39"",""613"",""0"",""stim"",""poldrack-single-stim"",""182"",""238116"",""0.0-181.0"",""attention-network-task"",""true"",""0"","""",""<div class = centerbox><div class = ANT_text>+</div></div><div class = ANT_down><img class = ANT_img src = images/left_arrow.png></img><img class = ANT_img src = images/left_arrow.png></img><img class = ANT_img src = images/right_arrow.png></img><img class = ANT_img src = images/left_arrow.png></img><img class = ANT_img src = images/left_arrow.png></img></div></div>"",""37,39"",""613"",""test"",""true"",""39"","""",""right"",""incongruent"",""down"",""double"",""12"","""",""""";;;
;;;
",""-1"",""-1"",""2321"",""0"",""fixation"",""poldrack-single-stim"",""183"",""240462"",""0.0-182.0"",""attention-network-task"",""true"",""0"","""",""<div class = centerbox><div class = ANT_text>+</div></div>"",""none"",""2321"",""test"","""","""","""","""","""","""","""","""","""",""""";;;
;;;
",""-1"",""-1"",""769"",""0"",""fixation"",""poldrack-single-stim"",""184"",""241234"",""0.0-183.0"",""attention-network-task"",""true"",""0"","""",""<div class = centerbox><div class = ANT_text>+</div></div>"",""none"",""769"",""test"","""","""","""","""","""","""","""","""","""",""""";;;
;;;
",""-1"",""-1"",""100"",""0"",""centercue"",""poldrack-single-stim"",""185"",""241337"",""0.0-184.0"",""attention-network-task"",""true"",""0"","""",""<div class = centerbox><div class = ANT_centercue_text>*</div></div>"",""none"",""100"",""test"","""","""","""","""","""","""","""","""","""",""""";;;
;;;
",""-1"",""-1"",""400"",""0"",""fixation"",""poldrack-single-stim"",""186"",""241740"",""0.0-185.0"",""attention-network-task"",""true"",""0"","""",""<div class = centerbox><div class = ANT_text>+</div></div>"",""none"",""400"",""test"","""","""","""","""","""","""","""","""","""",""""";;;
;;;
",""612"",""37"",""612"",""0"",""stim"",""poldrack-single-stim"",""187"",""242355"",""0.0-186.0"",""attention-network-task"",""true"",""0"","""",""<div class = centerbox><div class = ANT_text>+</div></div><div class = ANT_down><img class = ANT_img src = images/right_arrow.png></img><img class = ANT_img src = images/right_arrow.png></img><img class = ANT_img src = images/left_arrow.png></img><img class = ANT_img src = images/right_arrow.png></img><img class = ANT_img src = images/right_arrow.png></img></div></div>"",""37,39"",""612"",""test"",""true"",""37"","""",""left"",""incongruent"",""down"",""center"",""13"","""",""""";;;
;;;
",""-1"",""-1"",""2119"",""0"",""fixation"",""poldrack-single-stim"",""188"",""244499"",""0.0-187.0"",""attention-network-task"",""true"",""0"","""",""<div class = centerbox><div class = ANT_text>+</div></div>"",""none"",""2119"",""test"","""","""","""","""","""","""","""","""","""",""""";;;
;;;
",""-1"",""-1"",""1390"",""0"",""fixation"",""poldrack-single-stim"",""189"",""245892"",""0.0-188.0"",""attention-network-task"",""true"",""0"","""",""<div class = centerbox><div class = ANT_text>+</div></div>"",""none"",""1390"",""test"","""","""","""","""","""","""","""","""","""",""""";;;
;;;
",""-1"",""-1"",""100"",""0"",""doublecue"",""poldrack-single-stim"",""190"",""245994"",""0.0-189.0"",""attention-network-task"",""true"",""0"","""",""<div class = centerbox><div class = ANT_text>+</div></div><div class = ANT_down><div class = ANT_text>*</div></div><div class = ANT_up><div class = ANT_text>*</div><div></div>"",""none"",""100"",""test"","""","""","""","""","""","""","""","""","""",""""";;;
;;;
",""-1"",""-1"",""400"",""0"",""fixation"",""poldrack-single-stim"",""191"",""246396"",""0.0-190.0"",""attention-network-task"",""true"",""0"","""",""<div class = centerbox><div class = ANT_text>+</div></div>"",""none"",""400"",""test"","""","""","""","""","""","""","""","""","""",""""";;;
;;;
",""509"",""39"",""509"",""0"",""stim"",""poldrack-single-stim"",""192"",""246907"",""0.0-191.0"",""attention-network-task"",""true"",""0"","""",""<div class = centerbox><div class = ANT_text>+</div></div><div class = ANT_down><img class = ANT_img src = images/no_arrow.png></img><img class = ANT_img src = images/no_arrow.png></img><img class = ANT_img src = images/right_arrow.png></img><img class = ANT_img src = images/no_arrow.png></img><img class = ANT_img src = images/no_arrow.png></img></div></div>"",""37,39"",""509"",""test"",""true"",""39"","""",""right"",""neutral"",""down"",""double"",""14"","""",""""";;;
;;;
",""-1"",""-1"",""1601"",""0"",""fixation"",""poldrack-single-stim"",""193"",""248533"",""0.0-192.0"",""attention-network-task"",""true"",""0"","""",""<div class = centerbox><div class = ANT_text>+</div></div>"",""none"",""1601"",""test"","""","""","""","""","""","""","""","""","""",""""";;;
;;;
",""-1"",""-1"",""1189"",""0"",""fixation"",""poldrack-single-stim"",""194"",""249725"",""0.0-193.0"",""attention-network-task"",""true"",""0"","""",""<div class = centerbox><div class = ANT_text>+</div></div>"",""none"",""1189"",""test"","""","""","""","""","""","""","""","""","""",""""";;;
;;;
",""-1"",""-1"",""100"",""0"",""nocue"",""poldrack-single-stim"",""195"",""249828"",""0.0-194.0"",""attention-network-task"",""true"",""0"","""",""<div class = centerbox><div class = ANT_text>+</div></div>"",""none"",""100"",""test"","""","""","""","""","""","""","""","""","""",""""";;;
;;;
",""-1"",""-1"",""400"",""0"",""fixation"",""poldrack-single-stim"",""196"",""250229"",""0.0-195.0"",""attention-network-task"",""true"",""0"","""",""<div class = centerbox><div class = ANT_text>+</div></div>"",""none"",""400"",""test"","""","""","""","""","""","""","""","""","""",""""";;;
;;;
",""627"",""37"",""627"",""0"",""stim"",""poldrack-single-stim"",""197"",""250859"",""0.0-196.0"",""attention-network-task"",""true"",""0"","""",""<div class = centerbox><div class = ANT_text>+</div></div><div class = ANT_down><img class = ANT_img src = images/no_arrow.png></img><img class = ANT_img src = images/no_arrow.png></img><img class = ANT_img src = images/left_arrow.png></img><img class = ANT_img src = images/no_arrow.png></img><img class = ANT_img src = images/no_arrow.png></img></div></div>"",""37,39"",""627"",""test"",""true"",""37"","""",""left"",""neutral"",""down"",""nocue"",""15"","""",""""";;;
;;;
",""-1"",""-1"",""1684"",""0"",""fixation"",""poldrack-single-stim"",""198"",""252570"",""0.0-197.0"",""attention-network-task"",""true"",""0"","""",""<div class = centerbox><div class = ANT_text>+</div></div>"",""none"",""1684"",""test"","""","""","""","""","""","""","""","""","""",""""";;;
;;;
",""-1"",""-1"",""415"",""0"",""fixation"",""poldrack-single-stim"",""199"",""252987"",""0.0-198.0"",""attention-network-task"",""true"",""0"","""",""<div class = centerbox><div class = ANT_text>+</div></div>"",""none"",""415"",""test"","""","""","""","""","""","""","""","""","""",""""";;;
;;;
",""-1"",""-1"",""100"",""0"",""nocue"",""poldrack-single-stim"",""200"",""253091"",""0.0-199.0"",""attention-network-task"",""true"",""0"","""",""<div class = centerbox><div class = ANT_text>+</div></div>"",""none"",""100"",""test"","""","""","""","""","""","""","""","""","""",""""";;;
;;;
",""-1"",""-1"",""400"",""0"",""fixation"",""poldrack-single-stim"",""201"",""253493"",""0.0-200.0"",""attention-network-task"",""true"",""0"","""",""<div class = centerbox><div class = ANT_text>+</div></div>"",""none"",""400"",""test"","""","""","""","""","""","""","""","""","""",""""";;;
;;;
",""634"",""39"",""634"",""0"",""stim"",""poldrack-single-stim"",""202"",""254130"",""0.0-201.0"",""attention-network-task"",""true"",""0"","""",""<div class = centerbox><div class = ANT_text>+</div></div><div class = ANT_up><img class = ANT_img src = images/no_arrow.png></img><img class = ANT_img src = images/no_arrow.png></img><img class = ANT_img src = images/right_arrow.png></img><img class = ANT_img src = images/no_arrow.png></img><img class = ANT_img src = images/no_arrow.png></img></div></div>"",""37,39"",""634"",""test"",""true"",""39"","""",""right"",""neutral"",""up"",""nocue"",""16"","""",""""";;;
;;;
",""-1"",""-1"",""2451"",""0"",""fixation"",""poldrack-single-stim"",""203"",""256601"",""0.0-202.0"",""attention-network-task"",""true"",""0"","""",""<div class = centerbox><div class = ANT_text>+</div></div>"",""none"",""2451"",""test"","""","""","""","""","""","""","""","""","""",""""";;;
;;;
",""-1"",""-1"",""1519"",""0"",""fixation"",""poldrack-single-stim"",""204"",""258123"",""0.0-203.0"",""attention-network-task"",""true"",""0"","""",""<div class = centerbox><div class = ANT_text>+</div></div>"",""none"",""1519"",""test"","""","""","""","""","""","""","""","""","""",""""";;;
;;;
",""-1"",""-1"",""100"",""0"",""spatialcue"",""poldrack-single-stim"",""205"",""258225"",""0.0-204.0"",""attention-network-task"",""true"",""0"","""",""<div class = centerbox><div class = ANT_text>+</div></div><div class = centerbox><div class = ANT_down><div class = ANT_text>*</p></div></div>"",""none"",""100"",""test"","""","""","""","""","""","""","""","""","""",""""";;;
;;;
",""-1"",""-1"",""400"",""0"",""fixation"",""poldrack-single-stim"",""206"",""258627"",""0.0-205.0"",""attention-network-task"",""true"",""0"","""",""<div class = centerbox><div class = ANT_text>+</div></div>"",""none"",""400"",""test"","""","""","""","""","""","""","""","""","""",""""";;;
;;;
",""597"",""37"",""597"",""0"",""stim"",""poldrack-single-stim"",""207"",""259226"",""0.0-206.0"",""attention-network-task"",""true"",""0"","""",""<div class = centerbox><div class = ANT_text>+</div></div><div class = ANT_down><img class = ANT_img src = images/right_arrow.png></img><img class = ANT_img src = images/right_arrow.png></img><img class = ANT_img src = images/left_arrow.png></img><img class = ANT_img src = images/right_arrow.png></img><img class = ANT_img src = images/right_arrow.png></img></div></div>"",""37,39"",""597"",""test"",""true"",""37"","""",""left"",""incongruent"",""down"",""spatial"",""17"","""",""""";;;
;;;
",""-1"",""-1"",""1384"",""0"",""fixation"",""poldrack-single-stim"",""208"",""260625"",""0.0-207.0"",""attention-network-task"",""true"",""0"","""",""<div class = centerbox><div class = ANT_text>+</div></div>"",""none"",""1384"",""test"","""","""","""","""","""","""","""","""","""",""""";;;
;;;
",""-1"",""-1"",""1391"",""0"",""fixation"",""poldrack-single-stim"",""209"",""262018"",""0.0-208.0"",""attention-network-task"",""true"",""0"","""",""<div class = centerbox><div class = ANT_text>+</div></div>"",""none"",""1391"",""test"","""","""","""","""","""","""","""","""","""",""""";;;
;;;
",""-1"",""-1"",""100"",""0"",""doublecue"",""poldrack-single-stim"",""210"",""262121"",""0.0-209.0"",""attention-network-task"",""true"",""0"","""",""<div class = centerbox><div class = ANT_text>+</div></div><div class = ANT_down><div class = ANT_text>*</div></div><div class = ANT_up><div class = ANT_text>*</div><div></div>"",""none"",""100"",""test"","""","""","""","""","""","""","""","""","""",""""";;;
;;;
",""-1"",""-1"",""400"",""0"",""fixation"",""poldrack-single-stim"",""211"",""262524"",""0.0-210.0"",""attention-network-task"",""true"",""0"","""",""<div class = centerbox><div class = ANT_text>+</div></div>"",""none"",""400"",""test"","""","""","""","""","""","""","""","""","""",""""";;;
;;;
",""620"",""37"",""620"",""0"",""stim"",""poldrack-single-stim"",""212"",""263146"",""0.0-211.0"",""attention-network-task"",""true"",""0"","""",""<div class = centerbox><div class = ANT_text>+</div></div><div class = ANT_up><img class = ANT_img src = images/no_arrow.png></img><img class = ANT_img src = images/no_arrow.png></img><img class = ANT_img src = images/left_arrow.png></img><img class = ANT_img src = images/no_arrow.png></img><img class = ANT_img src = images/no_arrow.png></img></div></div>"",""37,39"",""620"",""test"",""true"",""37"","""",""left"",""neutral"",""up"",""double"",""18"","""",""""";;;
;;;
",""-1"",""-1"",""1489"",""0"",""fixation"",""poldrack-single-stim"",""213"",""264665"",""0.0-212.0"",""attention-network-task"",""true"",""0"","""",""<div class = centerbox><div class = ANT_text>+</div></div>"",""none"",""1489"",""test"","""","""","""","""","""","""","""","""","""",""""";;;
;;;
",""-1"",""-1"",""1241"",""0"",""fixation"",""poldrack-single-stim"",""214"",""265909"",""0.0-213.0"",""attention-network-task"",""true"",""0"","""",""<div class = centerbox><div class = ANT_text>+</div></div>"",""none"",""1241"",""test"","""","""","""","""","""","""","""","""","""",""""";;;
;;;
",""-1"",""-1"",""100"",""0"",""nocue"",""poldrack-single-stim"",""215"",""266013"",""0.0-214.0"",""attention-network-task"",""true"",""0"","""",""<div class = centerbox><div class = ANT_text>+</div></div>"",""none"",""100"",""test"","""","""","""","""","""","""","""","""","""",""""";;;
;;;
",""-1"",""-1"",""400"",""0"",""fixation"",""poldrack-single-stim"",""216"",""266416"",""0.0-215.0"",""attention-network-task"",""true"",""0"","""",""<div class = centerbox><div class = ANT_text>+</div></div>"",""none"",""400"",""test"","""","""","""","""","""","""","""","""","""",""""";;;
;;;
",""665"",""37"",""665"",""0"",""stim"",""poldrack-single-stim"",""217"",""267083"",""0.0-216.0"",""attention-network-task"",""true"",""0"","""",""<div class = centerbox><div class = ANT_text>+</div></div><div class = ANT_up><img class = ANT_img src = images/left_arrow.png></img><img class = ANT_img src = images/left_arrow.png></img><img class = ANT_img src = images/left_arrow.png></img><img class = ANT_img src = images/left_arrow.png></img><img class = ANT_img src = images/left_arrow.png></img></div></div>"",""37,39"",""665"",""test"",""true"",""37"","""",""left"",""congruent"",""up"",""nocue"",""19"","""",""""";;;
;;;
",""-1"",""-1"",""1594"",""0"",""fixation"",""poldrack-single-stim"",""218"",""268706"",""0.0-217.0"",""attention-network-task"",""true"",""0"","""",""<div class = centerbox><div class = ANT_text>+</div></div>"",""none"",""1594"",""test"","""","""","""","""","""","""","""","""","""",""""";;;
;;;
",""-1"",""-1"",""936"",""0"",""fixation"",""poldrack-single-stim"",""219"",""269645"",""0.0-218.0"",""attention-network-task"",""true"",""0"","""",""<div class = centerbox><div class = ANT_text>+</div></div>"",""none"",""936"",""test"","""","""","""","""","""","""","""","""","""",""""";;;
;;;
",""-1"",""-1"",""100"",""0"",""nocue"",""poldrack-single-stim"",""220"",""269747"",""0.0-219.0"",""attention-network-task"",""true"",""0"","""",""<div class = centerbox><div class = ANT_text>+</div></div>"",""none"",""100"",""test"","""","""","""","""","""","""","""","""","""",""""";;;
;;;
",""-1"",""-1"",""400"",""0"",""fixation"",""poldrack-single-stim"",""221"",""270149"",""0.0-220.0"",""attention-network-task"",""true"",""0"","""",""<div class = centerbox><div class = ANT_text>+</div></div>"",""none"",""400"",""test"","""","""","""","""","""","""","""","""","""",""""";;;
;;;
",""532"",""37"",""532"",""0"",""stim"",""poldrack-single-stim"",""222"",""270683"",""0.0-221.0"",""attention-network-task"",""true"",""0"","""",""<div class = centerbox><div class = ANT_text>+</div></div><div class = ANT_up><img class = ANT_img src = images/no_arrow.png></img><img class = ANT_img src = images/no_arrow.png></img><img class = ANT_img src = images/left_arrow.png></img><img class = ANT_img src = images/no_arrow.png></img><img class = ANT_img src = images/no_arrow.png></img></div></div>"",""37,39"",""532"",""test"",""true"",""37"","""",""left"",""neutral"",""up"",""nocue"",""20"","""",""""";;;
;;;
",""-1"",""-1"",""2032"",""0"",""fixation"",""poldrack-single-stim"",""223"",""272738"",""0.0-222.0"",""attention-network-task"",""true"",""0"","""",""<div class = centerbox><div class = ANT_text>+</div></div>"",""none"",""2032"",""test"","""","""","""","""","""","""","""","""","""",""""";;;
;;;
",""-1"",""-1"",""1397"",""0"",""fixation"",""poldrack-single-stim"",""224"",""274138"",""0.0-223.0"",""attention-network-task"",""true"",""0"","""",""<div class = centerbox><div class = ANT_text>+</div></div>"",""none"",""1397"",""test"","""","""","""","""","""","""","""","""","""",""""";;;
;;;
",""-1"",""-1"",""100"",""0"",""doublecue"",""poldrack-single-stim"",""225"",""274240"",""0.0-224.0"",""attention-network-task"",""true"",""0"","""",""<div class = centerbox><div class = ANT_text>+</div></div><div class = ANT_down><div class = ANT_text>*</div></div><div class = ANT_up><div class = ANT_text>*</div><div></div>"",""none"",""100"",""test"","""","""","""","""","""","""","""","""","""",""""";;;
;;;
",""-1"",""-1"",""400"",""0"",""fixation"",""poldrack-single-stim"",""226"",""274642"",""0.0-225.0"",""attention-network-task"",""true"",""0"","""",""<div class = centerbox><div class = ANT_text>+</div></div>"",""none"",""400"",""test"","""","""","""","""","""","""","""","""","""",""""";;;
;;;
",""559"",""39"",""559"",""0"",""stim"",""poldrack-single-stim"",""227"",""275201"",""0.0-226.0"",""attention-network-task"",""true"",""0"","""",""<div class = centerbox><div class = ANT_text>+</div></div><div class = ANT_up><img class = ANT_img src = images/no_arrow.png></img><img class = ANT_img src = images/no_arrow.png></img><img class = ANT_img src = images/right_arrow.png></img><img class = ANT_img src = images/no_arrow.png></img><img class = ANT_img src = images/no_arrow.png></img></div></div>"",""37,39"",""559"",""test"",""true"",""39"","""",""right"",""neutral"",""up"",""double"",""21"","""",""""";;;
;;;
",""-1"",""-1"",""1544"",""0"",""fixation"",""poldrack-single-stim"",""228"",""276759"",""0.0-227.0"",""attention-network-task"",""true"",""0"","""",""<div class = centerbox><div class = ANT_text>+</div></div>"",""none"",""1544"",""test"","""","""","""","""","""","""","""","""","""",""""";;;
;;;
",""-1"",""-1"",""1235"",""0"",""fixation"",""poldrack-single-stim"",""229"",""277997"",""0.0-228.0"",""attention-network-task"",""true"",""0"","""",""<div class = centerbox><div class = ANT_text>+</div></div>"",""none"",""1235"",""test"","""","""","""","""","""","""","""","""","""",""""";;;
;;;
",""-1"",""-1"",""100"",""0"",""spatialcue"",""poldrack-single-stim"",""230"",""278100"",""0.0-229.0"",""attention-network-task"",""true"",""0"","""",""<div class = centerbox><div class = ANT_text>+</div></div><div class = centerbox><div class = ANT_down><div class = ANT_text>*</p></div></div>"",""none"",""100"",""test"","""","""","""","""","""","""","""","""","""",""""";;;
;;;
",""-1"",""-1"",""400"",""0"",""fixation"",""poldrack-single-stim"",""231"",""278502"",""0.0-230.0"",""attention-network-task"",""true"",""0"","""",""<div class = centerbox><div class = ANT_text>+</div></div>"",""none"",""400"",""test"","""","""","""","""","""","""","""","""","""",""""";;;
;;;
",""587"",""39"",""587"",""0"",""stim"",""poldrack-single-stim"",""232"",""279091"",""0.0-231.0"",""attention-network-task"",""true"",""0"","""",""<div class = centerbox><div class = ANT_text>+</div></div><div class = ANT_down><img class = ANT_img src = images/right_arrow.png></img><img class = ANT_img src = images/right_arrow.png></img><img class = ANT_img src = images/right_arrow.png></img><img class = ANT_img src = images/right_arrow.png></img><img class = ANT_img src = images/right_arrow.png></img></div></div>"",""37,39"",""587"",""test"",""true"",""39"","""",""right"",""congruent"",""down"",""spatial"",""22"","""",""""";;;
;;;
",""-1"",""-1"",""1678"",""0"",""fixation"",""poldrack-single-stim"",""233"",""280798"",""0.0-232.0"",""attention-network-task"",""true"",""0"","""",""<div class = centerbox><div class = ANT_text>+</div></div>"",""none"",""1678"",""test"","""","""","""","""","""","""","""","""","""",""""";;;
;;;
",""-1"",""-1"",""1057"",""0"",""fixation"",""poldrack-single-stim"",""234"",""281858"",""0.0-233.0"",""attention-network-task"",""true"",""0"","""",""<div class = centerbox><div class = ANT_text>+</div></div>"",""none"",""1057"",""test"","""","""","""","""","""","""","""","""","""",""""";;;
;;;
",""-1"",""-1"",""100"",""0"",""doublecue"",""poldrack-single-stim"",""235"",""281960"",""0.0-234.0"",""attention-network-task"",""true"",""0"","""",""<div class = centerbox><div class = ANT_text>+</div></div><div class = ANT_down><div class = ANT_text>*</div></div><div class = ANT_up><div class = ANT_text>*</div><div></div>"",""none"",""100"",""test"","""","""","""","""","""","""","""","""","""",""""";;;
;;;
",""-1"",""-1"",""400"",""0"",""fixation"",""poldrack-single-stim"",""236"",""282363"",""0.0-235.0"",""attention-network-task"",""true"",""0"","""",""<div class = centerbox><div class = ANT_text>+</div></div>"",""none"",""400"",""test"","""","""","""","""","""","""","""","""","""",""""";;;
;;;
",""509"",""37"",""509"",""0"",""stim"",""poldrack-single-stim"",""237"",""282875"",""0.0-236.0"",""attention-network-task"",""true"",""0"","""",""<div class = centerbox><div class = ANT_text>+</div></div><div class = ANT_up><img class = ANT_img src = images/left_arrow.png></img><img class = ANT_img src = images/left_arrow.png></img><img class = ANT_img src = images/left_arrow.png></img><img class = ANT_img src = images/left_arrow.png></img><img class = ANT_img src = images/left_arrow.png></img></div></div>"",""37,39"",""509"",""test"",""true"",""37"","""",""left"",""congruent"",""up"",""double"",""23"","""",""""";;;
;;;
",""-1"",""-1"",""1934"",""0"",""fixation"",""poldrack-single-stim"",""238"",""284836"",""0.0-237.0"",""attention-network-task"",""true"",""0"","""",""<div class = centerbox><div class = ANT_text>+</div></div>"",""none"",""1934"",""test"","""","""","""","""","""","""","""","""","""",""""";;;
;;;
",""-1"",""-1"",""1243"",""0"",""fixation"",""poldrack-single-stim"",""239"",""286084"",""0.0-238.0"",""attention-network-task"",""true"",""0"","""",""<div class = centerbox><div class = ANT_text>+</div></div>"",""none"",""1243"",""test"","""","""","""","""","""","""","""","""","""",""""";;;
;;;
",""-1"",""-1"",""100"",""0"",""nocue"",""poldrack-single-stim"",""240"",""286186"",""0.0-239.0"",""attention-network-task"",""true"",""0"","""",""<div class = centerbox><div class = ANT_text>+</div></div>"",""none"",""100"",""test"","""","""","""","""","""","""","""","""","""",""""";;;
;;;
",""-1"",""-1"",""400"",""0"",""fixation"",""poldrack-single-stim"",""241"",""286590"",""0.0-240.0"",""attention-network-task"",""true"",""0"","""",""<div class = centerbox><div class = ANT_text>+</div></div>"",""none"",""400"",""test"","""","""","""","""","""","""","""","""","""",""""";;;
;;;
",""666"",""39"",""666"",""0"",""stim"",""poldrack-single-stim"",""242"",""287259"",""0.0-241.0"",""attention-network-task"",""true"",""0"","""",""<div class = centerbox><div class = ANT_text>+</div></div><div class = ANT_down><img class = ANT_img src = images/left_arrow.png></img><img class = ANT_img src = images/left_arrow.png></img><img class = ANT_img src = images/right_arrow.png></img><img class = ANT_img src = images/left_arrow.png></img><img class = ANT_img src = images/left_arrow.png></img></div></div>"",""37,39"",""666"",""test"",""true"",""39"","""",""right"",""incongruent"",""down"",""nocue"",""24"","""",""""";;;
;;;
",""-1"",""-1"",""1591"",""0"",""fixation"",""poldrack-single-stim"",""243"",""288880"",""0.0-242.0"",""attention-network-task"",""true"",""0"","""",""<div class = centerbox><div class = ANT_text>+</div></div>"",""none"",""1591"",""test"","""","""","""","""","""","""","""","""","""",""""";;;
;;;
",""-1"",""-1"",""1495"",""0"",""fixation"",""poldrack-single-stim"",""244"",""290378"",""0.0-243.0"",""attention-network-task"",""true"",""0"","""",""<div class = centerbox><div class = ANT_text>+</div></div>"",""none"",""1495"",""test"","""","""","""","""","""","""","""","""","""",""""";;;
;;;
",""-1"",""-1"",""100"",""0"",""centercue"",""poldrack-single-stim"",""245"",""290481"",""0.0-244.0"",""attention-network-task"",""true"",""0"","""",""<div class = centerbox><div class = ANT_centercue_text>*</div></div>"",""none"",""100"",""test"","""","""","""","""","""","""","""","""","""",""""";;;
;;;
",""-1"",""-1"",""400"",""0"",""fixation"",""poldrack-single-stim"",""246"",""290884"",""0.0-245.0"",""attention-network-task"",""true"",""0"","""",""<div class = centerbox><div class = ANT_text>+</div></div>"",""none"",""400"",""test"","""","""","""","""","""","""","""","""","""",""""";;;
;;;
",""540"",""37"",""540"",""0"",""stim"",""poldrack-single-stim"",""247"",""291426"",""0.0-246.0"",""attention-network-task"",""true"",""0"","""",""<div class = centerbox><div class = ANT_text>+</div></div><div class = ANT_up><img class = ANT_img src = images/no_arrow.png></img><img class = ANT_img src = images/no_arrow.png></img><img class = ANT_img src = images/left_arrow.png></img><img class = ANT_img src = images/no_arrow.png></img><img class = ANT_img src = images/no_arrow.png></img></div></div>"",""37,39"",""540"",""test"",""true"",""37"","""",""left"",""neutral"",""up"",""center"",""25"","""",""""";;;
;;;
",""-1"",""-1"",""1465"",""0"",""fixation"",""poldrack-single-stim"",""248"",""292916"",""0.0-247.0"",""attention-network-task"",""true"",""0"","""",""<div class = centerbox><div class = ANT_text>+</div></div>"",""none"",""1465"",""test"","""","""","""","""","""","""","""","""","""",""""";;;
;;;
",""-1"",""-1"",""557"",""0"",""fixation"",""poldrack-single-stim"",""249"",""293476"",""0.0-248.0"",""attention-network-task"",""true"",""0"","""",""<div class = centerbox><div class = ANT_text>+</div></div>"",""none"",""557"",""test"","""","""","""","""","""","""","""","""","""",""""";;;
;;;
",""-1"",""-1"",""100"",""0"",""centercue"",""poldrack-single-stim"",""250"",""293579"",""0.0-249.0"",""attention-network-task"",""true"",""0"","""",""<div class = centerbox><div class = ANT_centercue_text>*</div></div>"",""none"",""100"",""test"","""","""","""","""","""","""","""","""","""",""""";;;
;;;
",""-1"",""-1"",""400"",""0"",""fixation"",""poldrack-single-stim"",""251"",""293981"",""0.0-250.0"",""attention-network-task"",""true"",""0"","""",""<div class = centerbox><div class = ANT_text>+</div></div>"",""none"",""400"",""test"","""","""","""","""","""","""","""","""","""",""""";;;
;;;
",""628"",""39"",""628"",""0"",""stim"",""poldrack-single-stim"",""252"",""294612"",""0.0-251.0"",""attention-network-task"",""true"",""0"","""",""<div class = centerbox><div class = ANT_text>+</div></div><div class = ANT_up><img class = ANT_img src = images/left_arrow.png></img><img class = ANT_img src = images/left_arrow.png></img><img class = ANT_img src = images/right_arrow.png></img><img class = ANT_img src = images/left_arrow.png></img><img class = ANT_img src = images/left_arrow.png></img></div></div>"",""37,39"",""628"",""test"",""true"",""39"","""",""right"",""incongruent"",""up"",""center"",""26"","""",""""";;;
;;;
",""-1"",""-1"",""2315"",""0"",""fixation"",""poldrack-single-stim"",""253"",""296956"",""0.0-252.0"",""attention-network-task"",""true"",""0"","""",""<div class = centerbox><div class = ANT_text>+</div></div>"",""none"",""2315"",""test"","""","""","""","""","""","""","""","""","""",""""";;;
;;;
",""-1"",""-1"",""1217"",""0"",""fixation"",""poldrack-single-stim"",""254"",""298176"",""0.0-253.0"",""attention-network-task"",""true"",""0"","""",""<div class = centerbox><div class = ANT_text>+</div></div>"",""none"",""1217"",""test"","""","""","""","""","""","""","""","""","""",""""";;;
;;;
",""-1"",""-1"",""100"",""0"",""nocue"",""poldrack-single-stim"",""255"",""298279"",""0.0-254.0"",""attention-network-task"",""true"",""0"","""",""<div class = centerbox><div class = ANT_text>+</div></div>"",""none"",""100"",""test"","""","""","""","""","""","""","""","""","""",""""";;;
;;;
",""-1"",""-1"",""400"",""0"",""fixation"",""poldrack-single-stim"",""256"",""298682"",""0.0-255.0"",""attention-network-task"",""true"",""0"","""",""<div class = centerbox><div class = ANT_text>+</div></div>"",""none"",""400"",""test"","""","""","""","""","""","""","""","""","""",""""";;;
;;;
",""558"",""39"",""558"",""0"",""stim"",""poldrack-single-stim"",""257"",""299243"",""0.0-256.0"",""attention-network-task"",""true"",""0"","""",""<div class = centerbox><div class = ANT_text>+</div></div><div class = ANT_up><img class = ANT_img src = images/right_arrow.png></img><img class = ANT_img src = images/right_arrow.png></img><img class = ANT_img src = images/right_arrow.png></img><img class = ANT_img src = images/right_arrow.png></img><img class = ANT_img src = images/right_arrow.png></img></div></div>"",""37,39"",""558"",""test"",""true"",""39"","""",""right"",""congruent"",""up"",""nocue"",""27"","""",""""";;;
;;;
",""-1"",""-1"",""1725"",""0"",""fixation"",""poldrack-single-stim"",""258"",""300999"",""0.0-257.0"",""attention-network-task"",""true"",""0"","""",""<div class = centerbox><div class = ANT_text>+</div></div>"",""none"",""1725"",""test"","""","""","""","""","""","""","""","""","""",""""";;;
;;;
",""-1"",""-1"",""624"",""0"",""fixation"",""poldrack-single-stim"",""259"",""301625"",""0.0-258.0"",""attention-network-task"",""true"",""0"","""",""<div class = centerbox><div class = ANT_text>+</div></div>"",""none"",""624"",""test"","""","""","""","""","""","""","""","""","""",""""";;;
;;;
",""-1"",""-1"",""100"",""0"",""nocue"",""poldrack-single-stim"",""260"",""301727"",""0.0-259.0"",""attention-network-task"",""true"",""0"","""",""<div class = centerbox><div class = ANT_text>+</div></div>"",""none"",""100"",""test"","""","""","""","""","""","""","""","""","""",""""";;;
;;;
",""-1"",""-1"",""400"",""0"",""fixation"",""poldrack-single-stim"",""261"",""302129"",""0.0-260.0"",""attention-network-task"",""true"",""0"","""",""<div class = centerbox><div class = ANT_text>+</div></div>"",""none"",""400"",""test"","""","""","""","""","""","""","""","""","""",""""";;;
;;;
",""649"",""39"",""649"",""0"",""stim"",""poldrack-single-stim"",""262"",""302780"",""0.0-261.0"",""attention-network-task"",""true"",""0"","""",""<div class = centerbox><div class = ANT_text>+</div></div><div class = ANT_down><img class = ANT_img src = images/no_arrow.png></img><img class = ANT_img src = images/no_arrow.png></img><img class = ANT_img src = images/right_arrow.png></img><img class = ANT_img src = images/no_arrow.png></img><img class = ANT_img src = images/no_arrow.png></img></div></div>"",""37,39"",""649"",""test"",""true"",""39"","""",""right"",""neutral"",""down"",""nocue"",""28"","""",""""";;;
;;;
